"Time (s)","Acceleration x (m/s^2)","Acceleration y (m/s^2)","Acceleration z (m/s^2)"
1.835345200E-2,-2.662015200E0,5.225924492E0,9.570094109E0
2.066814000E-2,-2.576471806E0,5.195415974E0,1.008814049E1
2.298287900E-2,-2.423331022E0,5.160121918E0,1.050508976E1
2.529756700E-2,-2.192423820E0,5.126024246E0,1.084128094E1
2.761230600E-2,-1.957328916E0,5.078167915E0,1.108534908E1
2.992699400E-2,-1.755135417E0,5.030311584E0,1.125763226E1
3.224173300E-2,-1.596012712E0,4.986642361E0,1.142034435E1
3.455642100E-2,-1.490130305E0,4.957928658E0,1.152562809E1
3.687116000E-2,-1.465603828E0,4.895116806E0,1.158245754E1
3.918584800E-2,-1.494915962E0,4.864608288E0,1.168774223E1
4.150058800E-2,-1.561915040E0,4.844867706E0,1.172602749E1
4.381527500E-2,-1.677966833E0,4.824528694E0,1.173559856E1
4.613001500E-2,-1.826920033E0,4.823930264E0,1.171167088E1
4.844470200E-2,-1.947159410E0,4.857429981E0,1.160698414E1
5.075944200E-2,-2.053041935E0,4.901697159E0,1.145384407E1
5.307412900E-2,-2.100898266E0,4.969892502E0,1.125284672E1
5.538886900E-2,-2.110469580E0,5.024329185E0,1.100818062E1
5.770355600E-2,-2.120040894E0,5.083551884E0,1.074437141E1
6.001829600E-2,-2.086541414E0,5.182255745E0,1.042851925E1
6.233298300E-2,-2.023729801E0,5.261219025E0,1.008873844E1
6.464772300E-2,-1.917249203E0,5.341378212E0,9.705288887E0
6.696241000E-2,-1.801795483E0,5.411966801E0,9.278169632E0
6.927715000E-2,-1.661815286E0,5.472983360E0,8.851649284E0
7.159183800E-2,-1.535593987E0,5.542973518E0,8.453842163E0
7.390657700E-2,-1.400997639E0,5.603990555E0,8.056035995E0
7.622126500E-2,-1.299302697E0,5.635097504E0,7.701299667E0
7.853600400E-2,-1.279561877E0,5.632106304E0,7.374679565E0
8.085069200E-2,-1.283749342E0,5.604588985E0,7.096513748E0
8.316543100E-2,-1.345364571E0,5.556732178E0,6.875775814E0
8.548011900E-2,-1.426720500E0,5.499304771E0,6.683752060E0
8.779485800E-2,-1.508076429E0,5.441278458E0,6.534798622E0
9.010954600E-2,-1.574477315E0,5.359324455E0,6.428916454E0
9.242428500E-2,-1.636690736E0,5.286941528E0,6.370890141E0
9.473897300E-2,-1.694118381E0,5.199603558E0,6.360720634E0
9.705371300E-2,-1.756331801E0,5.121836662E0,6.336792469E0
9.936840000E-2,-1.808973908E0,5.033900738E0,6.384050846E0
1.016831400E-1,-1.880758643E0,4.931607246E0,6.484549522E0
1.039978270E-1,-1.971685886E0,4.828716278E0,6.589235306E0
1.063125670E-1,-2.072782516E0,4.735395908E0,6.713662148E0
1.086272540E-1,-2.201995134E0,4.540380955E0,6.875775814E0
1.109419940E-1,-2.440080881E0,4.083351612E0,7.074978352E0
1.132566810E-1,-2.669193745E0,3.610769272E0,7.408777237E0
1.155714210E-1,-2.838485956E0,3.510869026E0,7.935796261E0
1.178861080E-1,-2.979064226E0,3.501297712E0,8.655437469E0
1.202008480E-1,-3.221337557E0,3.573680639E0,9.422935486E0
1.225155350E-1,-3.492922783E0,3.659822226E0,1.017727280E1
1.248302750E-1,-3.811766386E0,3.736990690E0,1.083470058E1
1.271449630E-1,-4.116851330E0,3.800998688E0,1.136291695E1
1.294597020E-1,-4.420739651E0,3.854837179E0,1.180917835E1
1.317743900E-1,-4.667200565E0,3.914657831E0,1.217468166E1
1.340891290E-1,-4.898108006E0,3.931407690E0,1.243370438E1
1.364038170E-1,-5.029115200E0,3.973282099E0,1.253958702E1
1.387185560E-1,-5.082355499E0,4.001996040E0,1.259222889E1
1.410332440E-1,-5.091926575E0,4.021138668E0,1.262632656E1
1.433479830E-1,-5.063212872E0,4.050450325E0,1.250130177E1
1.456627230E-1,-5.005186558E0,4.051048756E0,1.252523041E1
1.479644940E-1,-4.856233597E0,4.071387768E0,1.252044487E1
1.502920980E-1,-4.697110653E0,4.063013077E0,1.242473125E1
1.526068380E-1,-4.470989227E0,4.089334011E0,1.230030441E1
1.549215770E-1,-4.196412563E0,4.111467361E0,1.206999588E1
1.572362650E-1,-3.917050600E0,4.133601189E0,1.180558872E1
1.595509520E-1,-3.545564890E0,4.195814610E0,1.146999550E1
1.618656920E-1,-3.223132133E0,4.258028030E0,1.100997543E1
1.641803790E-1,-2.938386202E0,4.277170658E0,1.042433167E1
1.664951190E-1,-2.609971285E0,4.281357765E0,9.901499748E0
1.687969420E-1,-2.280958176E0,4.248456478E0,9.171689034E0
1.711245460E-1,-1.947757602E0,4.150949001E0,8.701499939E0
1.734392850E-1,-1.618744493E0,4.035495281E0,8.057829857E0
1.757410560E-1,-1.261017561E0,3.894917011E0,7.548159122E0
1.780686600E-1,-9.469595551E-1,3.768097401E0,7.101299286E0
1.803834000E-1,-6.227321029E-1,3.569493294E0,6.601199627E0
1.826852230E-1,-3.655036688E-1,3.350549936E0,6.230311871E0
1.850128270E-1,-9.930214286E-2,3.107080221E0,5.874379635E0
1.873275670E-1,1.244267747E-1,2.834298372E0,5.575276852E0
1.896293380E-1,2.799602449E-1,2.531008244E0,5.401198864E0
1.919569940E-1,3.487538993E-1,2.202593327E0,5.404190063E0
1.942716810E-1,3.308077157E-1,1.896311998E0,5.694917679E0
1.965735040E-1,1.920240223E-1,1.578664780E0,6.317649841E0
1.989011080E-1,-1.016949583E-2,1.277767301E0,7.169494629E0
2.012158480E-1,-2.943171859E-1,1.004985452E0,8.170890808E0
2.035176190E-1,-6.418746710E-1,7.950153351E-1,9.196215630E0
2.058452750E-1,-9.840483069E-1,6.191428304E-1,1.013599682E1
2.081599630E-1,-1.263410330E0,4.929214716E-1,1.082632637E1
2.104617850E-1,-1.456032634E0,4.127618968E-1,1.117149067E1
2.127893900E-1,-1.585843205E0,3.870390654E-1,1.120499039E1
2.151041290E-1,-1.701895118E0,4.067798555E-1,1.101834965E1
2.174059000E-1,-1.850250125E0,4.223332107E-1,1.069172955E1
2.197335560E-1,-1.975275040E0,4.570291340E-1,1.031306553E1
2.220482440E-1,-2.152343988E0,5.060819983E-1,9.973284721E0
2.243629830E-1,-2.344367981E0,5.497509837E-1,9.637691498E0
2.266776710E-1,-2.502892494E0,5.844469070E-1,9.335597992E0
2.289924100E-1,-2.632703066E0,6.239284873E-1,9.009575844E0
2.313070980E-1,-2.699103832E0,6.299105883E-1,8.645268440E0
2.336218380E-1,-2.732005358E0,5.880361795E-1,8.246863365E0
2.359365250E-1,-2.736192703E0,5.557330847E-1,7.896314621E0
2.382383480E-1,-2.758924484E0,4.797609448E-1,7.632505894E0
2.405659520E-1,-2.773281336E0,3.397808075E-1,7.449455261E0
2.428806920E-1,-2.791825771E0,2.093719840E-1,7.362117290E0
2.451953790E-1,-2.872583628E0,4.486542568E-2,7.371089935E0
2.475101190E-1,-2.982653379E0,-1.357926875E-1,7.529016495E0
2.498248060E-1,-3.083750248E0,-2.739782035E-1,7.959724426E0
2.521395460E-1,-3.160320520E0,-4.109672904E-1,8.261219978E0
2.544542330E-1,-3.223132133E0,-4.905286431E-1,8.553742409E0
2.567689730E-1,-3.270988464E0,-5.449653864E-1,8.735597610E0
2.590836600E-1,-3.275774240E0,-6.131607890E-1,8.864809990E0
2.613984000E-1,-3.304488182E0,-6.711867452E-1,8.811569214E0
2.637130880E-1,-3.371487141E0,-7.094719410E-1,8.739784241E0
2.660278270E-1,-3.471985579E0,-7.202396393E-1,8.687142372E0
2.683425150E-1,-3.562912941E0,-7.788637877E-1,8.686544418E0
2.706572540E-1,-3.732205153E0,-7.776673436E-1,9.166305542E0
2.729590770E-1,-4.024129391E0,-7.112665176E-1,1.028913784E1
2.752866810E-1,-4.435695171E0,-6.496513486E-1,1.190190029E1
2.776013690E-1,-5.036891460E0,-4.486542344E-1,1.355773354E1
2.799031920E-1,-5.601597786E0,-7.537391037E-2,1.366062450E1
2.822307960E-1,-5.492125988E0,2.422732860E-1,1.314437294E1
2.845455350E-1,-4.847858906E0,4.983053207E-1,1.306899929E1
2.868473580E-1,-3.835096598E0,7.483552694E-1,1.365942764E1
2.891749630E-1,-2.033899307E0,1.152144074E0,1.444247913E1
2.914896500E-1,-7.848458290E-1,1.395015597E0,1.484566975E1
2.937914730E-1,-1.077966571E0,1.344168067E0,1.496531105E1
2.961190770E-1,-1.356730461E0,1.318445325E0,1.496052551E1
2.984338170E-1,-1.375872970E0,1.172483087E0,1.506521130E1
3.007356400E-1,-1.124626637E0,9.565308690E-1,1.515972805E1
3.030632440E-1,-7.232306600E-1,5.820540786E-1,1.502812290E1
3.053779830E-1,-3.349951804E-1,1.106680483E-1,1.497787380E1
3.076797540E-1,-4.366901144E-2,-4.624129832E-1,1.483071518E1
3.100074100E-1,3.248256743E-1,-9.439685345E-1,1.472722530E1
3.123220980E-1,8.428717852E-1,-1.389033556E0,1.455254936E1
3.146239210E-1,1.269392371E0,-1.809572101E0,1.396451283E1
3.169515250E-1,1.633699656E0,-2.224128723E0,1.307976723E1
3.192662650E-1,1.998605132E0,-2.608774900E0,1.212323570E1
3.215680350E-1,2.449054003E0,-2.959323406E0,1.126720333E1
3.238956920E-1,2.972483873E0,-3.282952785E0,1.064626598E1
3.262103790E-1,3.421138287E0,-3.500101328E0,1.023230743E1
3.285122020E-1,3.662813187E0,-3.555734396E0,1.002114105E1
3.308398060E-1,3.715455294E0,-3.564707518E0,9.934401512E0
3.331545460E-1,3.503690481E0,-3.556332588E0,9.934999466E0
3.354563170E-1,3.037090063E0,-3.491726398E0,9.983454704E0
3.377839730E-1,2.386242390E0,-3.390031576E0,1.009950638E1
3.400986600E-1,1.567298889E0,-3.284747362E0,1.026341438E1
3.424004830E-1,-1.794617064E-2,-3.129213810E0,1.104706383E1
3.447280880E-1,-2.182852507E0,-2.750549555E0,1.206221867E1
3.470428270E-1,-3.879363775E0,-2.278565407E0,1.235354519E1
3.493446500E-1,-4.762315273E0,-1.740180254E0,1.199222851E1
3.516722540E-1,-4.898705959E0,-1.177268744E0,1.134257793E1
3.539869420E-1,-4.530211449E0,-5.760720372E-1,1.064028454E1
3.562887650E-1,-3.848257065E0,3.649054468E-2,9.803992271E0
3.586163690E-1,-3.152543783E0,6.305087805E-1,8.900103569E0
3.609311080E-1,-2.479562521E0,1.195214868E0,7.966903210E0
3.632329310E-1,-1.951945066E0,1.739582062E0,7.163512707E0
3.655605350E-1,-1.457827210E0,2.253440619E0,6.609574318E0
3.678752230E-1,-9.738788009E-1,2.755933523E0,6.400800705E0
3.701770460E-1,-4.761717021E-1,3.251247883E0,6.527620316E0
3.725046500E-1,-1.280160099E-1,3.720839262E0,6.856035233E0
3.748193900E-1,1.375873014E-2,4.083950043E0,7.159923553E0
3.771212130E-1,-3.110669367E-2,4.387240410E0,7.338787079E0
3.794488170E-1,-1.627119333E-1,4.608576298E0,7.398009300E0
3.817635040E-1,-3.170489967E-1,4.728217602E0,7.485347271E0
3.840653270E-1,-5.096712112E-1,4.721039295E0,7.652844906E0
3.863929310E-1,-6.161518097E-1,4.598406792E0,7.882555962E0
3.887076710E-1,-6.927221417E-1,4.442275047E0,8.106883049E0
3.910223580E-1,-7.010970116E-1,4.218546391E0,8.312067986E0
3.933370980E-1,-6.664010882E-1,3.961916208E0,8.478368759E0
3.956517850E-1,-5.982056856E-1,3.666402578E0,8.592626572E0
3.979665250E-1,-5.485545993E-1,3.395415306E0,8.634500504E0
4.002812130E-1,-4.983053207E-1,3.120240688E0,8.632705688E0
4.025959520E-1,-4.636093974E-1,2.888735056E0,8.583653450E0
4.049106400E-1,-4.576273263E-1,2.666202545E0,8.568099976E0
4.072253790E-1,-5.000999570E-1,2.505883455E0,8.553144455E0
4.095499100E-1,-5.718846321E-1,2.335993052E0,8.638688087E0
4.118548060E-1,-6.867401004E-1,2.199003935E0,8.877371788E0
4.141695460E-1,-8.309076428E-1,2.056032896E0,9.221938133E0
4.164842330E-1,-9.900303483E-1,1.956730723E0,9.552745819E0
4.187989210E-1,-1.205982566E0,1.852642894E0,9.768698692E0
4.211136600E-1,-1.432104349E0,1.773679733E0,9.839884758E0
4.234284000E-1,-1.663609982E0,1.747956991E0,9.825528145E0
4.257430880E-1,-1.860419631E0,1.741974831E0,9.796813965E0
4.280578270E-1,-2.038684845E0,1.770090580E0,9.811769485E0
4.303725150E-1,-2.216950178E0,1.817348838E0,9.860223770E0
4.326872540E-1,-2.380858421E0,1.902892232E0,9.875179291E0
4.350019420E-1,-2.597409010E0,1.959721804E0,9.870393753E0
4.373166810E-1,-2.848057270E0,1.953739643E0,9.856036186E0
4.396313690E-1,-3.055036306E0,1.917847395E0,9.928419113E0
4.419461080E-1,-3.199203968E0,1.868196249E0,1.007677460E1
4.442607960E-1,-3.257827997E0,1.901097536E0,1.022034359E1
4.465755350E-1,-3.257827997E0,1.933998942E0,1.040279675E1
4.488902230E-1,-3.191427231E0,2.030309916E0,1.057149029E1
4.512049630E-1,-3.038286448E0,2.151147604E0,1.068215847E1
4.535196500E-1,-2.842075109E0,2.297109842E0,1.072582722E1
4.558343900E-1,-2.568096876E0,2.444268227E0,1.073121166E1
4.581490770E-1,-2.309073925E0,2.614757061E0,1.072223854E1
4.604638170E-1,-2.035693884E0,2.757728100E0,1.064626598E1
4.627785040E-1,-1.785643935E0,2.885744095E0,1.049312592E1
4.650932440E-1,-1.578664780E0,2.941377163E0,1.029212856E1
4.674079310E-1,-1.400399446E0,2.977269650E0,1.006181908E1
4.697226710E-1,-1.235892892E0,2.955734253E0,9.798010826E0
4.720373580E-1,-1.120439172E0,2.962314367E0,9.552745819E0
4.743520980E-1,-1.018744230E0,2.944368362E0,9.317651749E0
4.766667850E-1,-9.798609018E-1,2.931207657E0,9.111868858E0
4.789815250E-1,-9.553344250E-1,2.956930637E0,8.895915985E0
4.812962130E-1,-9.074779749E-1,3.040081263E0,8.685347557E0
4.836109520E-1,-9.074779749E-1,3.128017426E0,8.502895355E0
4.859256400E-1,-9.607182741E-1,3.224926710E0,8.369495392E0
4.882403790E-1,-9.517452121E-1,3.312862873E0,8.259425163E0
4.905550670E-1,-7.208378315E-1,3.376870871E0,8.240880966E0
4.928698060E-1,-3.840480447E-1,3.432504177E0,8.255238533E0
4.951844940E-1,-5.724828243E-1,3.484548092E0,8.265407562E0
4.974992330E-1,-7.794619799E-1,3.545564890E0,8.289336205E0
4.998139210E-1,-9.768698215E-1,3.573082447E0,8.390432358E0
5.021286600E-1,-1.135992527E0,3.625126362E0,8.477172852E0
5.044433480E-1,-1.285543919E0,3.638286829E0,8.477172852E0
5.067580880E-1,-1.377069473E0,3.667000771E0,8.511270523E0
5.090728270E-1,-1.478166223E0,3.729214191E0,8.472985268E0
5.113875150E-1,-1.502094388E0,3.729214191E0,8.410771370E0
5.137022540E-1,-1.434497118E0,3.744767427E0,8.281558990E0
5.160169420E-1,-1.314257860E0,3.751347780E0,8.084749222E0
5.183316290E-1,-1.164706469E0,3.777668715E0,7.950751305E0
5.206463690E-1,-9.481559992E-1,3.803989887E0,7.835297585E0
5.229611080E-1,-7.322037220E-1,3.859024763E0,7.739584923E0
5.252757960E-1,-5.443671346E-1,3.908675671E0,7.629515171E0
5.275905350E-1,-4.145565331E-1,3.997210264E0,7.514659405E0
5.299052230E-1,-4.241278172E-1,4.099503517E0,7.332805157E0
5.322199630E-1,-5.742774606E-1,4.220939159E0,7.060023308E0
5.345346500E-1,-7.477570772E-1,4.394418716E0,6.921837807E0
5.368493900E-1,-9.170492887E-1,4.601397991E0,6.875177860E0
5.391640770E-1,-9.421738982E-1,4.799404144E0,6.900302410E0
5.414788170E-1,-8.518448472E-1,4.988437176E0,7.011568546E0
5.437935040E-1,-6.610172391E-1,5.177470207E0,7.189833641E0
5.461082440E-1,-3.972085714E-1,5.347360611E0,7.397411346E0
5.484229310E-1,-1.339980662E-1,5.512465000E0,7.584649563E0
5.507376710E-1,1.585244983E-1,5.677569866E0,7.758129120E0
5.530523580E-1,4.031906128E-1,5.799603939E0,7.873582840E0
5.553670980E-1,6.340979934E-1,5.873183250E0,7.922037601E0
5.576817850E-1,8.021938205E-1,5.937191010E0,7.902894974E0
5.599965250E-1,8.739784956E-1,5.943173409E0,7.835896015E0
5.623112130E-1,8.500502706E-1,5.943173409E0,7.744968891E0
5.646259520E-1,7.734799385E-1,5.914459229E0,7.605587006E0
5.669406400E-1,6.346961856E-1,5.861218929E0,7.451848030E0
5.692553790E-1,5.096712112E-1,5.783452511E0,7.316653252E0
5.715700670E-1,3.906283081E-1,5.687141418E0,7.095915318E0
5.738848060E-1,2.518445849E-1,5.595615864E0,6.860222340E0
5.761994940E-1,1.758724600E-1,5.490331650E0,6.548557281E0
5.785142330E-1,1.046859920E-1,5.438885689E0,6.163911343E0
5.808289730E-1,1.010967568E-1,5.397011280E0,5.746961594E0
5.831436600E-1,3.409772366E-2,5.413163185E0,5.358726501E0
5.854454830E-1,-1.818545163E-1,5.413163185E0,5.123033047E0
5.877730880E-1,-5.479564071E-1,5.420939922E0,5.041677475E0
5.900878270E-1,-1.000199914E0,5.426921844E0,5.162514687E0
5.923895980E-1,-1.423729420E0,5.404190063E0,5.306682587E0
5.947172540E-1,-1.794616938E0,5.372485161E0,5.416752338E0
5.970319420E-1,-2.030309916E0,5.356333256E0,5.445466042E0
5.993337650E-1,-2.097309113E0,5.346762180E0,5.383252621E0
6.016613690E-1,-2.015354872E0,5.367101192E0,5.297111034E0
6.039761080E-1,-1.784447432E0,5.388038158E0,5.201398373E0
6.062907960E-1,-1.471585870E0,5.448457241E0,5.109872818E0
6.086055350E-1,-1.135394335E0,5.513661385E0,5.114658356E0
6.109202230E-1,-8.327022791E-1,5.597410202E0,5.172684193E0
6.132349630E-1,-5.928218365E-1,5.680561066E0,5.312066078E0
6.155496500E-1,-4.636093974E-1,5.791827202E0,5.461617470E0
6.178643900E-1,-4.402793646E-1,5.877370834E0,5.687141418E0
6.201790770E-1,-4.600201547E-1,5.968297958E0,5.898307800E0
6.224938170E-1,-5.186443329E-1,6.093322754E0,6.071787357E0
6.248085040E-1,-5.778666735E-1,6.159723759E0,6.263811588E0
6.271232440E-1,-5.976074338E-1,6.236293793E0,6.408577442E0
6.294379310E-1,-5.934200287E-1,6.293721676E0,6.552744865E0
6.317526710E-1,-5.365904570E-1,6.332006931E0,6.696912289E0
6.340673580E-1,-3.966103494E-1,6.356533527E0,6.831508636E0
6.363820980E-1,-2.093719840E-1,6.371488571E0,6.999006271E0
6.386967850E-1,7.178467698E-3,6.376872540E0,7.080362320E0
6.410115250E-1,2.135594189E-1,6.373282909E0,7.161718369E0
6.433262130E-1,3.912265003E-1,6.373881340E0,7.185646534E0
6.456409520E-1,5.168496966E-1,6.370292187E0,7.190432072E0
6.479556400E-1,5.886343718E-1,6.361319065E0,7.122834682E0
6.502703790E-1,6.861419082E-1,6.347560406E0,7.041478634E0
6.525850670E-1,7.387840152E-1,6.343372822E0,6.931408882E0
6.548998060E-1,8.165507317E-1,6.339783669E0,6.782455921E0
6.572145460E-1,9.080761671E-1,6.345765591E0,6.658029079E0
6.595292330E-1,9.559326172E-1,6.342176437E0,6.518647194E0
6.618439730E-1,9.900303483E-1,6.381658077E0,6.413362980E0
6.641586600E-1,9.900303483E-1,6.425326824E0,6.322435856E0
6.664734000E-1,9.320043921E-1,6.468996048E0,6.270391941E0
6.687880880E-1,8.213363886E-1,6.516852379E0,6.207580090E0
6.711028270E-1,6.813562512E-1,6.564708710E0,6.164509296E0
6.734175150E-1,5.222335458E-1,6.602396011E0,6.093322754E0
6.757322540E-1,3.487538993E-1,6.640681267E0,6.021538258E0
6.780469420E-1,1.615155339E-1,6.659225464E0,5.949753284E0
6.803616810E-1,-1.196411345E-2,6.677769661E0,5.834897995E0
6.826763690E-1,-1.609173268E-1,6.682555676E0,5.743970871E0
6.849911080E-1,-3.242274821E-1,6.686742783E0,5.657829285E0
6.873057960E-1,-4.779663086E-1,6.675975323E0,5.590830326E0
6.896205350E-1,-6.323033571E-1,6.641877651E0,5.551946640E0
6.919352230E-1,-8.147560954E-1,6.592226505E0,5.547161102E0
6.942499630E-1,-1.025922656E0,6.556932449E0,5.618945599E0
6.965646500E-1,-1.310070395E0,6.510870457E0,5.676373482E0
6.988793900E-1,-1.559522152E0,6.451049805E0,5.748157978E0
7.011940770E-1,-1.776670814E0,6.372086525E0,5.824728489E0
7.034959000E-1,-1.949552298E0,6.283552170E0,5.881557941E0
7.058235040E-1,-2.021337032E0,6.205785751E0,5.953342915E0
7.081382440E-1,-2.011167526E0,6.108277798E0,6.063412666E0
7.104529830E-1,-1.900499344E0,6.006583214E0,6.211169243E0
7.127676710E-1,-1.755733609E0,5.914459229E0,6.412764549E0
7.150824100E-1,-1.577468276E0,5.831906796E0,6.656832695E0
7.173970980E-1,-1.380658627E0,5.769095421E0,6.972685337E0
7.197118380E-1,-1.183250785E0,5.700900078E0,7.288537979E0
7.220265250E-1,-9.672985673E-1,5.642873764E0,7.595417500E0
7.243283480E-1,-7.848458290E-1,5.637490273E0,7.911868095E0
7.266559520E-1,-6.406782866E-1,5.608178139E0,8.165507317E0
7.289706920E-1,-5.060819983E-1,5.598008633E0,8.376673698E0
7.312724630E-1,-3.912265003E-1,5.612365723E0,8.573483467E0
7.336001190E-1,-2.907279432E-1,5.651248932E0,8.722436905E0
7.359148060E-1,-1.896311939E-1,5.679962635E0,8.833105087E0
7.382166290E-1,-9.870393574E-2,5.723631859E0,8.924032211E0
7.405442330E-1,-2.991028363E-3,5.729015827E0,9.005388260E0
7.428589730E-1,9.332008660E-2,5.782256126E0,9.077771187E0
7.451736600E-1,1.890329868E-1,5.806782246E0,9.154341698E0
7.474884000E-1,2.991028428E-1,5.840879917E0,9.241081238E0
7.498030880E-1,3.804588020E-1,5.884549141E0,9.303294182E0
7.521178270E-1,4.378865361E-1,5.923432350E0,9.351749420E0
7.544325150E-1,4.570291340E-1,5.961717606E0,9.394820213E0
7.567472540E-1,4.187439680E-1,5.976074696E0,9.423533440E0
7.590619420E-1,4.085744619E-1,5.990431309E0,9.476774216E0
7.613766810E-1,3.361915946E-1,6.004190445E0,9.476774216E0
7.636913690E-1,2.787638307E-1,5.989833355E0,9.438488960E0
7.660061080E-1,2.548356056E-1,5.999404430E0,9.376275063E0
7.683207960E-1,2.021935135E-1,5.989833355E0,9.251250267E0
7.706355350E-1,1.740778536E-1,5.956932068E0,9.126225471E0
7.729502230E-1,1.597209126E-1,5.928217888E0,8.992227554E0
7.752649630E-1,1.262213886E-1,5.904289722E0,8.852845192E0
7.775797020E-1,6.400800496E-2,5.885147095E0,8.718847275E0
7.798943900E-1,-3.170489892E-2,5.866004944E0,8.574680328E0
7.822091290E-1,-1.274178028E-1,5.861218929E0,8.449654579E0
7.845238170E-1,-2.039881349E-1,5.856433392E0,8.325227737E0
7.868385560E-1,-2.715853751E-1,5.885745525E0,8.229515076E0
7.891532440E-1,-3.290131092E-1,5.866602898E0,8.157132149E0
7.914679830E-1,-3.720839322E-1,5.890531063E0,8.099704742E0
7.937826710E-1,-4.157529473E-1,5.904888153E0,8.090133667E0
7.960974100E-1,-4.444667995E-1,5.885147095E0,8.104490280E0
7.984120980E-1,-5.072783828E-1,5.889334679E0,8.138587952E0
8.007268380E-1,-5.557330847E-1,5.879165173E0,8.167302132E0
8.030415250E-1,-6.376872063E-1,5.873781204E0,8.215158463E0
8.053562650E-1,-7.148557901E-1,5.863611698E0,8.263014793E0
8.076709520E-1,-7.914260626E-1,5.843272686E0,8.296514511E0
8.099856920E-1,-8.685946465E-1,5.813961029E0,8.310871124E0
8.123003790E-1,-8.925228715E-1,5.794219971E0,8.325227737E0
8.146151190E-1,-8.727820516E-1,5.755934715E0,8.267202377E0
8.169298060E-1,-8.338986635E-1,5.708078384E0,8.233702660E0
8.192445460E-1,-8.147560954E-1,5.688935757E0,8.194819450E0
8.215592330E-1,-7.902296782E-1,5.669793129E0,8.209176064E0
8.238739730E-1,-7.375875711E-1,5.645864964E0,8.204390526E0
8.261886600E-1,-7.088736892E-1,5.631507874E0,8.257032394E0
8.285034000E-1,-6.412764788E-1,5.617151260E0,8.324031830E0
8.308181400E-1,-5.982056856E-1,5.607579708E0,8.362317085E0
8.331328270E-1,-5.306084156E-1,5.602794170E0,8.424530029E0
8.354475670E-1,-4.725824594E-1,5.593223095E0,8.486743927E0
8.377622540E-1,-3.858426511E-1,5.598008633E0,8.549555779E0
8.400769940E-1,-3.044866920E-1,5.603392601E0,8.602197647E0
8.423916810E-1,-2.273181528E-1,5.593821049E0,8.630910873E0
8.447064210E-1,-1.651047617E-1,5.594419479E0,8.659625053E0
8.470211080E-1,-1.124626622E-1,5.599205017E0,8.712266922E0
8.493358480E-1,-8.315058798E-2,5.584847927E0,8.745766640E0
8.516505350E-1,-5.922235921E-2,5.579464436E0,8.793622971E0
8.539652750E-1,-4.486542568E-2,5.584249973E0,8.827720642E0
8.562799630E-1,-5.443671346E-2,5.589035511E0,8.818149567E0
8.585947020E-1,-6.879365444E-2,5.598606586E0,8.808578491E0
8.609093900E-1,-6.460621208E-2,5.627918720E0,8.789435387E0
8.632241290E-1,-6.460621208E-2,5.662016392E0,8.760722160E0
8.655388170E-1,-7.896314561E-2,5.666802406E0,8.693722725E0
8.678535560E-1,-1.028913707E-1,5.686542988E0,8.617152214E0
8.701682440E-1,-1.411765367E-1,5.691926956E0,8.506484032E0
8.724829830E-1,-1.363908947E-1,5.736194134E0,8.358129501E0
8.747976710E-1,-1.262213886E-1,5.756533146E0,8.180462837E0
8.771124100E-1,-1.166501045E-1,5.800800323E0,7.969893932E0
8.794270980E-1,-1.645065546E-1,5.845067501E0,7.754539967E0
8.817418380E-1,-2.027917206E-1,5.898906231E0,7.534400463E0
8.840565250E-1,-1.884347796E-1,5.938985825E0,7.336992264E0
8.863712650E-1,-2.171486616E-1,6.007181168E0,7.135995388E0
8.886860040E-1,-2.464607358E-1,6.061617851E0,6.987640381E0
8.910006920E-1,-2.416750938E-1,6.115456581E0,6.887141705E0
8.933154310E-1,-3.044866920E-1,6.173482418E0,6.839883327E0
8.956301190E-1,-3.332005441E-1,6.202196121E0,6.839883327E0
8.979448580E-1,-3.571287692E-1,6.216553211E0,6.859025955E0
9.002595460E-1,-3.864408433E-1,6.235097408E0,6.964908600E0
9.025742850E-1,-4.253242314E-1,6.195616245E0,7.122834682E0
9.048889730E-1,-4.731806815E-1,6.165107727E0,7.309474945E0
9.072037130E-1,-5.216353536E-1,6.139384747E0,7.521239758E0
9.095184000E-1,-6.041877270E-1,6.089733601E0,7.779664516E0
9.118331400E-1,-6.909275651E-1,5.995217323E0,8.018946648E0
9.141478270E-1,-8.063812256E-1,5.921039581E0,8.243872643E0
9.164625670E-1,-8.733802438E-1,5.827719688E0,8.435297966E0
9.187772540E-1,-9.936196208E-1,5.715256691E0,8.569893837E0
9.210919940E-1,-1.074975610E0,5.627320766E0,8.669795036E0
9.234066810E-1,-1.180259824E0,5.490929604E0,8.712865829E0
9.257214210E-1,-1.299900889E0,5.402993679E0,8.760123253E0
9.280361080E-1,-1.342971683E0,5.310869694E0,8.783453941E0
9.303508480E-1,-1.399801254E0,5.199005604E0,8.821739197E0
9.326655350E-1,-1.409372568E0,5.160121918E0,8.816354752E0
9.349802750E-1,-1.395015597E0,5.131408215E0,8.801998138E0
9.372950150E-1,-1.351346612E0,5.141577721E0,8.792427063E0
9.396097020E-1,-1.322632670E0,5.141577721E0,8.778069496E0
9.419244420E-1,-1.250848055E0,5.176273346E0,8.758927345E0
9.442391290E-1,-1.116251707E0,5.230112076E0,8.725427628E0
9.465538690E-1,-1.005583763E0,5.289334297E0,8.678169250E0
9.488685560E-1,-8.668000102E-1,5.362913609E0,8.649456024E0
9.511832960E-1,-6.891329288E-1,5.450850010E0,8.630312920E0
9.534979830E-1,-5.306084156E-1,5.519643784E0,8.611768723E0
9.558127230E-1,-3.667000830E-1,5.578866005E0,8.606983185E0
9.581274100E-1,-1.842473447E-1,5.652445316E0,8.583653450E0
9.604421500E-1,-3.050848842E-2,5.697310925E0,8.554939270E0
9.627568380E-1,1.040877849E-1,5.741578102E0,8.535796165E0
9.650715770E-1,2.093719840E-1,5.771488190E0,8.521439552E0
9.673862650E-1,2.817548811E-1,5.781657696E0,8.506484032E0
9.697010040E-1,3.391826153E-1,5.767300606E0,8.521439552E0
9.720156920E-1,3.583251834E-1,5.786443233E0,8.506484032E0
9.743304310E-1,3.684946895E-1,5.762515068E0,8.501698494E0
9.766451190E-1,3.684946895E-1,5.714060307E0,8.520841599E0
9.789598580E-1,3.445664644E-1,5.670391560E0,8.544769287E0
9.812745460E-1,3.206382394E-1,5.617151260E0,8.559126854E0
9.835892850E-1,2.877369225E-1,5.563312531E0,8.568099976E0
9.859040250E-1,2.638086975E-1,5.529214859E0,8.601598740E0
9.882187130E-1,2.207378894E-1,5.452046394E0,8.606385231E0
9.905334520E-1,1.920240223E-1,5.413163185E0,8.605786324E0
9.928481400E-1,1.441675574E-1,5.359324455E0,8.596215248E0
9.951628790E-1,7.716853172E-2,5.320441246E0,8.576474190E0
9.974775670E-1,1.974078640E-2,5.262415409E0,8.528617859E0
9.997923060E-1,-1.854437590E-2,5.213960648E0,8.469993591E0
1.002106994E0,-4.187439755E-2,5.185246468E0,8.388637543E0
1.004421733E0,-4.666004330E-2,5.156532764E0,8.325826645E0
1.006736421E0,-6.580262631E-2,5.156532764E0,8.258827209E0
1.009051160E0,-8.015955985E-2,5.181059361E0,8.230113029E0
1.011365848E0,-8.015955985E-2,5.205585480E0,8.163114548E0
1.013680588E0,-9.990034252E-2,5.249254704E0,8.111070633E0
1.015995275E0,-5.144568533E-2,5.298307419E0,8.044071198E0
1.018310015E0,1.076770201E-2,5.356931686E0,7.981858253E0
1.020624702E0,8.733802289E-2,5.410770416E0,7.934001446E0
1.022939442E0,1.884347796E-1,5.464608669E0,7.871788502E0
1.025254129E0,2.602194548E-1,5.513661385E0,7.819744587E0
1.027568869E0,3.224328458E-1,5.548357487E0,7.752745152E0
1.029883608E0,3.708875179E-1,5.572884083E0,7.704888821E0
1.032198296E0,3.948157430E-1,5.597410202E0,7.666603565E0
1.034513035E0,3.852444589E-1,5.612365723E0,7.642675400E0
1.036827723E0,4.187439680E-1,5.621936798E0,7.604390144E0
1.039142463E0,4.331009090E-1,5.617749214E0,7.585247993E0
1.041457150E0,4.863412082E-1,5.593821049E0,7.584649563E0
1.043771890E0,5.491527915E-1,5.579464436E0,7.579864025E0
1.046086577E0,6.358926296E-1,5.545964718E0,7.594220638E0
1.048401317E0,6.987041831E-1,5.517251015E0,7.603792191E0
1.050716004E0,7.567301393E-1,5.508277893E0,7.646862984E0
1.053030744E0,7.806583643E-1,5.488536835E0,7.723433495E0
1.055345431E0,7.854440212E-1,5.459224701E0,7.819146156E0
1.057660171E0,7.806583643E-1,5.424529076E0,7.929215908E0
1.059974858E0,7.806583643E-1,5.389832973E0,8.082356453E0
1.062289598E0,7.369893789E-1,5.374279499E0,8.264211655E0
1.064604285E0,7.369893789E-1,5.334797859E0,8.465806961E0
1.066919025E0,7.411768436E-1,5.295316696E0,8.672187805E0
1.069233713E0,7.746763229E-1,5.260620594E0,8.868398666E0
1.071548452E0,7.986045480E-1,5.240281582E0,9.084351540E0
1.073863140E0,8.177471161E-1,5.176273346E0,9.333204269E0
1.076177879E0,8.368897438E-1,5.117051125E0,9.596415520E0
1.078492619E0,8.991031051E-1,5.087141037E0,9.831509590E0
1.080807306E0,9.373882413E-1,5.038087845E0,1.005224800E1
1.083122046E0,9.762716293E-1,4.969892502E0,1.023888779E1
1.085423817E0,1.004985452E0,4.911268711E0,1.039202881E1
1.087751473E0,1.028913736E0,4.881358147E0,1.047817039E1
1.090066160E0,1.004985452E0,4.817948341E0,1.056371403E1
1.092380900E0,9.427721500E-1,4.798207760E0,1.057328510E1
1.094695588E0,8.997012973E-1,4.764110088E0,1.052064323E1
1.097010327E0,8.422735929E-1,4.730610371E0,1.040997505E1
1.099325015E0,7.513462901E-1,4.730610371E0,1.028554821E1
1.101639754E0,6.502495408E-1,4.731208801E0,1.007438183E1
1.103954442E0,5.300102234E-1,4.721637249E0,9.835099220E0
1.106269181E0,4.342973232E-1,4.761118889E0,9.575477600E0
1.108583869E0,3.044866920E-1,4.819743156E0,9.336195946E0
1.110898608E0,2.087737769E-1,4.859224796E0,9.058628082E0
1.113213296E0,1.220339537E-1,4.918447018E0,8.776275635E0
1.115528035E0,4.067798331E-2,4.967499733E0,8.497511864E0
1.117842723E0,-3.649054468E-2,5.045864582E0,8.229515076E0
1.120144546E0,-7.477571070E-2,5.100301266E0,7.966304779E0
1.122472150E0,-1.226321608E-1,5.134997368E0,7.727022648E0
1.124786890E0,-1.369891018E-1,5.212764263E0,7.511668682E0
1.127088713E0,-1.322034448E-1,5.262415409E0,7.319046497E0
1.129416317E0,-1.274178028E-1,5.331208706E0,7.146762848E0
1.131731056E0,-9.810572863E-2,5.365904808E0,6.993622303E0
1.134032827E0,-8.374879509E-2,5.429314613E0,6.864409924E0
1.136360483E0,-4.067798331E-2,5.449055195E0,6.768697262E0
1.138675171E0,-1.196411345E-2,5.474180222E0,6.649055958E0
1.140989910E0,-1.674975827E-2,5.523232937E0,6.572485447E0
1.143304598E0,2.991028363E-3,5.523232937E0,6.519843578E0
1.145619338E0,1.734796353E-2,5.547759533E0,6.495915413E0
1.147934025E0,5.084748194E-2,5.567500114E0,6.500700951E0
1.150248765E0,8.913264424E-2,5.581857204E0,6.549155712E0
1.152563452E0,1.274178028E-1,5.591428280E0,6.597012043E0
1.154878192E0,2.087737769E-1,5.577071190E0,6.678368092E0
1.157192879E0,2.470589429E-1,5.566901684E0,6.774080753E0
1.159507619E0,3.050848842E-1,5.547759533E0,6.836294174E0
1.161822306E0,3.385843933E-1,5.518447399E0,6.922435760E0
1.164137046E0,3.529413342E-1,5.479563713E0,7.027719975E0
1.166451733E0,3.337987661E-1,5.474180222E0,7.137789726E0
1.168766473E0,3.050848842E-1,5.429912567E0,7.243073940E0
1.171081213E0,2.518445849E-1,5.400002480E0,7.319644451E0
1.173395900E0,2.183450609E-1,5.389832973E0,7.420741081E0
1.175710640E0,1.651047617E-1,5.355136871E0,7.511668682E0
1.178025327E0,1.220339537E-1,5.320441246E0,7.593024254E0
1.180340067E0,8.853443712E-2,5.300700188E0,7.651050568E0
1.182654754E0,5.503492057E-2,5.266602516E0,7.717451096E0
1.184969494E0,6.580262445E-3,5.236692429E0,7.774878979E0
1.187284181E0,1.674975827E-2,5.197809219E0,7.837092400E0
1.189598921E0,6.580262445E-3,5.182853699E0,7.889734268E0
1.191913608E0,4.067798331E-2,5.173282623E0,7.932805061E0
1.194228348E0,9.332008660E-2,5.154139996E0,7.985447407E0
1.196543035E0,1.465603858E-1,5.139782906E0,8.009375572E0
1.198857775E0,2.231307179E-1,5.135595798E0,8.023732185E0
1.201172463E0,2.763710022E-1,5.135595798E0,8.018946648E0
1.203487202E0,3.385843933E-1,5.140979290E0,8.009375572E0
1.205801942E0,3.774677813E-1,5.141577721E0,7.990232944E0
1.208116629E0,4.348955154E-1,5.166104317E0,8.009375572E0
1.210431369E0,4.636093974E-1,5.161318302E0,7.995018482E0
1.212746056E0,4.923232496E-1,5.190630436E0,7.980661869E0
1.215060796E0,4.588237405E-1,5.200201988E0,7.971090317E0
1.217375483E0,4.492524564E-1,5.214558601E0,7.923233986E0
1.219690223E0,4.540380836E-1,5.234299660E0,7.861020565E0
1.222004910E0,4.396811724E-1,5.225326538E0,7.789236069E0
1.224319650E0,4.013960063E-1,5.234897614E0,7.707880020E0
1.226634338E0,3.726821244E-1,5.240281582E0,7.612166882E0
1.228949077E0,3.487538993E-1,5.225924492E0,7.539783955E0
1.231263765E0,3.104687333E-1,5.221138954E0,7.439285755E0
1.233578504E0,2.817548811E-1,5.192425251E0,7.357331276E0
1.235893192E0,2.291127741E-1,5.192425251E0,7.265805721E0
1.238207931E0,2.392822653E-1,5.173282623E0,7.203592777E0
1.240522619E0,1.812563092E-1,5.154139996E0,7.136593342E0
1.242837358E0,1.573280841E-1,5.144568920E0,7.083353043E0
1.245152098E0,1.674975902E-1,5.134997368E0,7.054639339E0
1.247466785E0,1.674975902E-1,5.115854740E0,7.016354084E0
1.249781525E0,1.531406492E-1,5.115854740E0,6.978068829E0
1.252096213E0,1.531406492E-1,5.111069202E0,6.949355125E0
1.254410952E0,1.435693651E-1,5.159523964E0,6.949355125E0
1.256725640E0,1.387837082E-1,5.145166874E0,6.958926678E0
1.259040379E0,1.046859920E-1,5.139782906E0,7.045068264E0
1.261355067E0,8.554340899E-2,5.153541565E0,7.117451191E0
1.263669806E0,6.101697683E-2,5.162514687E0,7.194021225E0
1.265984494E0,8.374879137E-3,5.152345181E0,7.284948349E0
1.268299233E0,-6.580262445E-3,5.146961689E0,7.332805157E0
1.270613921E0,-6.580262445E-3,5.146961689E0,7.356733322E0
1.272928660E0,-2.572284266E-2,5.127819061E0,7.361518860E0
1.275243348E0,-6.580262445E-3,5.127819061E0,7.351947784E0
1.277558088E0,-1.196411322E-3,5.123033047E0,7.342376232E0
1.279872775E0,3.230310604E-2,5.137988567E0,7.313662529E0
1.282187515E0,3.708875179E-2,5.133202553E0,7.289734364E0
1.284502254E0,6.101697683E-2,5.142774105E0,7.261020184E0
1.286816942E0,6.580262631E-2,5.167300701E0,7.261020184E0
1.289131681E0,4.666004330E-2,5.196014404E0,7.266404152E0
1.291446369E0,5.623133108E-2,5.210969448E0,7.256833076E0
1.293761108E0,4.606183618E-2,5.244469166E0,7.242475986E0
1.296075796E0,6.041877344E-2,5.254638672E0,7.223333359E0
1.298390535E0,5.084748194E-2,5.264209747E0,7.180262566E0
1.300705223E0,1.136590764E-1,5.283950806E0,7.137191772E0
1.303019963E0,1.423729509E-1,5.298905849E0,7.089335442E0
1.305334650E0,1.806581169E-1,5.294718266E0,7.041478634E0
1.307649390E0,2.291127741E-1,5.295316696E0,6.993024349E0
1.309964077E0,2.338984162E-1,5.300102234E0,6.949953556E0
1.312278817E0,2.632105052E-1,5.295914650E0,6.882954121E0
1.314593504E0,2.871387303E-1,5.301298618E0,6.868597507E0
1.316908244E0,2.536391914E-1,5.295914650E0,6.835097790E0
1.319222983E0,2.243271172E-1,5.300700188E0,6.825526714E0
1.321537671E0,2.099701911E-1,5.300700188E0,6.835097790E0
1.323852410E0,1.621137410E-1,5.290530682E0,6.835097790E0
1.326167098E0,1.668993831E-1,5.295914650E0,6.820741177E0
1.328481838E0,1.860419661E-1,5.319842815E0,6.801598549E0
1.330796525E0,2.386840582E-1,5.325226784E0,6.806384087E0
1.333111265E0,2.434697002E-1,5.334797859E0,6.820741177E0
1.335425952E0,3.008974493E-1,5.373681545E0,6.854838848E0
1.337740692E0,3.104687333E-1,5.388038158E0,6.931408882E0
1.340055379E0,3.146561682E-1,5.431109428E0,7.027719975E0
1.342370119E0,3.002992272E-1,5.454439163E0,7.166503906E0
1.344684806E0,2.566302419E-1,5.477769375E0,7.315456867E0
1.346999546E0,2.321037948E-1,5.496313572E0,7.421339512E0
1.349314233E0,2.123630047E-1,5.519643784E0,7.555935860E0
1.351628973E0,2.219343036E-1,5.533402443E0,7.685148239E0
1.353943660E0,2.650051117E-1,5.533402443E0,7.786244869E0
1.356258400E0,3.463610709E-1,5.528616905E0,7.881958008E0
1.358573088E0,4.618147612E-1,5.538187981E0,8.006384850E0
1.360887827E0,5.629115105E-1,5.523830891E0,8.111668587E0
1.363202567E0,6.975077987E-1,5.514857769E0,8.216953278E0
1.365517254E0,7.890332937E-1,5.514857769E0,8.332406998E0
1.367831994E0,8.751748800E-1,5.519643784E0,8.456833839E0
1.370146681E0,9.571290612E-1,5.499902725E0,8.553144455E0
1.372461421E0,9.714859724E-1,5.504688263E0,8.639286041E0
1.374776108E0,9.906286001E-1,5.523830891E0,8.668598175E0
1.377090848E0,1.009771109E0,5.529214859E0,8.659027100E0
1.379405535E0,9.900303483E-1,5.538786411E0,8.639883995E0
1.381720275E0,9.756734371E-1,5.557928562E0,8.577671051E0
1.384034963E0,9.517452121E-1,5.572884083E0,8.515457153E0
1.386349702E0,9.373882413E-1,5.597410202E0,8.443074226E0
1.388664390E0,8.847461939E-1,5.611767292E0,8.404789925E0
1.390979129E0,8.315058947E-1,5.650052547E0,8.380861282E0
1.393293869E0,7.836494446E-1,5.640480995E0,8.333004951E0
1.395608556E0,7.256234884E-1,5.673980713E0,8.294719696E0
1.397923296E0,6.538388133E-1,5.688337803E0,8.232506752E0
1.400237983E0,5.904290080E-1,5.693123341E0,8.184649467E0
1.402552723E0,5.521438122E-1,5.702694416E0,8.117650986E0
1.404867410E0,5.186443329E-1,5.688337803E0,8.041080475E0
1.407182150E0,4.755735099E-1,5.702694416E0,7.983652592E0
1.409496838E0,4.755735099E-1,5.717649937E0,7.892127514E0
1.411811577E0,4.803591371E-1,5.732604980E0,7.834699631E0
1.414126265E0,4.803591371E-1,5.742774487E0,7.758129120E0
1.416441004E0,4.803591371E-1,5.757729530E0,7.715058327E0
1.418755692E0,4.516452849E-1,5.791228771E0,7.681559086E0
1.421070431E0,4.755735099E-1,5.815755367E0,7.672585964E0
1.423385119E0,4.414757788E-1,5.849255085E0,7.672585964E0
1.425699858E0,4.313062727E-1,5.887540340E0,7.706085205E0
1.428014598E0,4.504488707E-1,5.921638012E0,7.730611801E0
1.430329285E0,4.313062727E-1,5.930611134E0,7.797610760E0
1.432644025E0,4.402793646E-1,5.978467464E0,7.898707390E0
1.434958713E0,4.546363056E-1,5.983253002E0,7.975277901E0
1.437273452E0,4.594219327E-1,5.977869034E0,8.085348129E0
1.439588140E0,4.588237405E-1,5.982056618E0,8.210372925E0
1.441902879E0,4.444667995E-1,5.976672649E0,8.339585304E0
1.444217567E0,4.247260094E-1,5.965905190E0,8.483154297E0
1.446532306E0,4.007977843E-1,5.950950146E0,8.623134613E0
1.448846994E0,3.720839322E-1,5.925825119E0,8.742775917E0
1.451161733E0,3.571287692E-1,5.891129494E0,8.852845192E0
1.453476421E0,3.332005441E-1,5.871388435E0,8.982057571E0
1.455791160E0,2.901297510E-1,5.817550182E0,9.077771187E0
1.458105848E0,2.614158690E-1,5.782854080E0,9.144769669E0
1.460420588E0,2.273181528E-1,5.763113499E0,9.202198029E0
1.462735327E0,2.033899277E-1,5.729015827E0,9.216554642E0
1.465050015E0,1.651047617E-1,5.704489231E0,9.254839897E0
1.467364754E0,1.172483116E-1,5.660820007E0,9.239884377E0
1.469679442E0,1.172483116E-1,5.651248932E0,9.239884377E0
1.471994181E0,1.465603858E-1,5.656034470E0,9.249456406E0
1.474308869E0,1.220339537E-1,5.656034470E0,9.244669914E0
1.476623608E0,1.316052526E-1,5.665606022E0,9.225527763E0
1.478938296E0,1.220339537E-1,5.690132141E0,9.206384659E0
1.481253035E0,9.332008660E-2,5.709274769E0,9.178269386E0
1.483567723E0,4.486542568E-2,5.723631859E0,9.159127235E0
1.485882463E0,-7.776673418E-3,5.709274769E0,9.105886459E0
1.488197150E0,-6.041877344E-2,5.723631859E0,9.053244591E0
1.490511890E0,-9.930214286E-2,5.752345562E0,8.982057571E0
1.492826577E0,-1.184447184E-1,5.772086620E0,8.919844627E0
1.495141317E0,-1.423729509E-1,5.762515068E0,8.876175880E0
1.497456004E0,-1.567298770E-1,5.796612740E0,8.809176445E0
1.499770744E0,-1.854437590E-1,5.801398277E0,8.746963501E0
1.502085483E0,-1.902294010E-1,5.840281963E0,8.733204842E0
1.504400171E0,-2.099701911E-1,5.849853039E0,8.766703606E0
1.506714910E0,-2.291127741E-1,5.873183250E0,8.814560890E0
1.509029598E0,-2.344966233E-1,5.931209087E0,8.872586250E0
1.511344338E0,-2.632105052E-1,5.944967747E0,8.920442581E0
1.513659025E0,-2.440679073E-1,5.949753284E0,8.973084450E0
1.515973765E0,-2.542374134E-1,5.979065418E0,8.988039970E0
1.518288452E0,-2.446661144E-1,5.988636971E0,9.016754150E0
1.520603192E0,-2.494517565E-1,5.968895912E0,9.031110764E0
1.522917879E0,-2.398804724E-1,5.959324837E0,9.040681839E0
1.525232619E0,-2.685943544E-1,5.939583778E0,9.064610481E0
1.527547306E0,-2.638086975E-1,5.944369793E0,9.083752632E0
1.529862046E0,-2.590230405E-1,5.925227165E0,9.102895737E0
1.532176785E0,-2.877369225E-1,5.910272121E0,9.126823425E0
1.534491473E0,-2.925225794E-1,5.910272121E0,9.141180992E0
1.536806213E0,-3.068794906E-1,5.909673691E0,9.165108681E0
1.539120900E0,-2.781656384E-1,5.895316601E0,9.179466248E0
1.541435640E0,-2.638086975E-1,5.924628735E0,9.174679756E0
1.543750327E0,-2.350948304E-1,5.924628735E0,9.169894218E0
1.546065067E0,-1.866401732E-1,5.915655613E0,9.150752068E0
1.548379754E0,-1.483550072E-1,5.921039581E0,9.111868858E0
1.550694494E0,-1.094716340E-1,5.916254044E0,9.092725754E0
1.553009181E0,-8.554340899E-2,5.921638012E0,9.035298347E0
1.555323921E0,-5.204389244E-2,5.897709846E0,9.020941734E0
1.557638608E0,-6.101697683E-2,5.878567219E0,9.030512810E0
1.559953348E0,-3.708875179E-2,5.858826160E0,9.054440498E0
1.562268088E0,-3.708875179E-2,5.868397713E0,9.126225471E0
1.564582775E0,2.991028316E-2,5.849255085E0,9.202795982E0
1.566897515E0,4.426721856E-2,5.828916073E0,9.327222824E0
1.569212202E0,1.016949639E-1,5.804987907E0,9.418149948E0
1.571526942E0,1.501496136E-1,5.780461311E0,9.561718941E0
1.573841629E0,1.692921966E-1,5.740979671E0,9.720243454E0
1.576156369E0,1.788634956E-1,5.701498032E0,9.849455833E0
1.578471056E0,1.980060786E-1,5.676971912E0,9.984052658E0
1.580785796E0,2.123630047E-1,5.618347645E0,1.011805058E1
1.583100483E0,1.884347796E-1,5.564508915E0,1.024666500E1
1.585415223E0,1.788634956E-1,5.491528034E0,1.032802105E1
1.587729910E0,1.166501045E-1,5.413163185E0,1.042373371E1
1.590044650E0,6.400800496E-2,5.359324455E0,1.048116112E1
1.592359390E0,-3.230310604E-2,5.286343575E0,1.053320503E1
1.594674077E0,-9.391828626E-2,5.213362217E0,1.053320503E1
1.596988817E0,-1.758724600E-1,5.140381336E0,1.054217815E1
1.599303504E0,-2.667997181E-1,5.067399979E0,1.051765156E1
1.601618244E0,-3.720839322E-1,5.008776188E0,1.048415279E1
1.603932931E0,-4.630111754E-1,4.940580368E0,1.045005512E1
1.606247671E0,-5.252245665E-1,4.891527653E0,1.040219784E1
1.608562358E0,-6.263213158E-1,4.828117847E0,1.034417248E1
1.610877098E0,-6.981059909E-1,4.794020176E0,1.028674412E1
1.613191785E0,-8.081758618E-1,4.755136967E0,1.018564796E1
1.615506525E0,-8.709874153E-1,4.731208801E0,1.012821960E1
1.617821213E0,-9.379864931E-1,4.701896667E0,1.008036327E1
1.620135952E0,-1.009771109E0,4.672584534E0,9.998409271E0
1.622450692E0,-1.048056364E0,4.639084816E0,9.926624298E0
1.624765379E0,-1.095912814E0,4.624728203E0,9.820742607E0
1.627080067E0,-1.100100160E0,4.620540619E0,9.729815483E0
1.629394806E0,-1.095314622E0,4.606183529E0,9.643673897E0
1.631709546E0,-1.056431174E0,4.612165451E0,9.551549911E0
1.634024233E0,-9.942178130E-1,4.612763882E0,9.489336014E0
1.636338973E0,-9.696913958E-1,4.622933388E0,9.427123070E0
1.638653660E0,-9.074779749E-1,4.637888432E0,9.364909172E0
1.640968400E0,-8.590233326E-1,4.662415028E0,9.302696228E0
1.643283088E0,-7.968099117E-1,4.687539577E0,9.240483284E0
1.645597827E0,-7.244270444E-1,4.707878590E0,9.144769669E0
1.647912515E0,-6.861419082E-1,4.742574692E0,9.049057007E0
1.650227254E0,-6.430711150E-1,4.782055855E0,8.948558807E0
1.652541942E0,-5.994020700E-1,4.831109047E0,8.824131966E0
1.654856681E0,-5.898307562E-1,4.884947300E0,8.714061737E0
1.657171421E0,-5.850451589E-1,4.939383984E0,8.599205971E0
1.659486108E0,-6.095715761E-1,4.983053207E0,8.474181175E0
1.661800848E0,-6.287141442E-1,5.060820103E0,8.368897438E0
1.664115535E0,-6.771687865E-1,5.104488850E0,8.263612747E0
1.666430275E0,-7.298108935E-1,5.152943611E0,8.178069115E0
1.668744963E0,-7.399803996E-1,5.206183910E0,8.106285095E0
1.671059702E0,-7.351947427E-1,5.250451088E0,8.067999840E0
1.673374390E0,-6.969096065E-1,5.279763222E0,8.058428764E0
1.675689129E0,-6.538388133E-1,5.318646431E0,8.020143509E0
1.678003817E0,-5.862415433E-1,5.338387489E0,8.006384850E0
1.680318556E0,-5.527420044E-1,5.353342533E0,8.006384850E0
1.682633244E0,-5.042873621E-1,5.338985443E0,8.059026718E0
1.684947983E0,-4.660021961E-1,5.338387489E0,8.116454124E0
1.687262723E0,-4.564309120E-1,5.324030399E0,8.207381248E0
1.689577410E0,-4.564309120E-1,5.313860893E0,8.303094864E0
1.691892150E0,-4.564309120E-1,5.284548759E0,8.370093346E0
1.694206838E0,-4.223332107E-1,5.260022163E0,8.413164139E0
1.696521577E0,-3.984049559E-1,5.264808178E0,8.446663857E0
1.698836265E0,-4.031906128E-1,5.250451088E0,8.461020470E0
1.701151004E0,-3.792623878E-1,5.226522923E0,8.480163574E0
1.703465692E0,-3.744767308E-1,5.211567879E0,8.494520187E0
1.705780431E0,-3.888336718E-1,5.211567879E0,8.499305725E0
1.708095119E0,-4.031906128E-1,5.197210789E0,8.475378036E0
1.710409858E0,-4.510470629E-1,5.191826820E0,8.475378036E0
1.712724598E0,-5.042873621E-1,5.206183910E0,8.456234932E0
1.715039285E0,-5.234299302E-1,5.196612358E0,8.441878319E0
1.717354025E0,-5.527420044E-1,5.181657314E0,8.426922798E0
1.719668713E0,-5.575276613E-1,5.187041283E0,8.402995110E0
1.721983452E0,-5.718846321E-1,5.187041283E0,8.369495392E0
1.724298140E0,-5.623133183E-1,5.201996326E0,8.312067986E0
1.726612879E0,-5.521438122E-1,5.187639713E0,8.254639626E0
1.728927567E0,-5.377869010E-1,5.188237667E0,8.192426682E0
1.731242306E0,-4.941178858E-1,5.203192711E0,8.149355888E0
1.733556994E0,-4.648058116E-1,5.198407173E0,8.086544037E0
1.735871733E0,-4.169493318E-1,5.194219589E0,8.019545555E0
1.738186421E0,-3.637090325E-1,5.194818020E0,7.971688747E0
1.740501160E0,-2.721835673E-1,5.196014404E0,7.914260864E0
1.742815848E0,-2.099701911E-1,5.215754986E0,7.880761147E0
1.745130588E0,-1.615155339E-1,5.230710506E0,7.861618996E0
1.747445327E0,-1.184447184E-1,5.225924492E0,7.875975609E0
1.749760015E0,-9.451649338E-2,5.240281582E0,7.909475327E0
1.752074754E0,-7.537391037E-2,5.254638672E0,7.971688747E0
1.754389442E0,-9.451649338E-2,5.254040241E0,8.048258781E0
1.756704181E0,-7.118647546E-2,5.249254704E0,8.168498039E0
1.759018869E0,-1.238285750E-1,5.223531723E0,8.312067986E0
1.761333608E0,-1.094716340E-1,5.213362217E0,8.446065903E0
1.763648296E0,-1.244267747E-1,5.203192711E0,8.562117577E0
1.765963035E0,-1.387837082E-1,5.168497086E0,8.700901031E0
1.768277775E0,-1.435693651E-1,5.129613400E0,8.810971260E0
1.770592463E0,-1.483550072E-1,5.099703312E0,8.897112846E0
1.772907150E0,-1.244267747E-1,5.066203594E0,8.949754715E0
1.775221890E0,-1.142572835E-1,5.002793789E0,9.025727272E0
1.777536629E0,-9.032905847E-2,4.974080086E0,9.040083885E0
1.779851317E0,-6.640082598E-2,4.963910580E0,9.083154678E0
1.782166056E0,-8.374879137E-3,4.920839787E0,9.150154114E0
1.784480744E0,3.948157281E-2,4.906482697E0,9.188439369E0
1.786795483E0,8.315058798E-2,4.906482697E0,9.207581520E0
1.789110171E0,1.310070455E-1,4.901697159E0,9.207581520E0
1.791424910E0,1.692921966E-1,4.902295589E0,9.193224907E0
1.793739598E0,1.890329868E-1,4.922036171E0,9.159725189E0
1.796054338E0,2.225325108E-1,4.941776752E0,9.107083321E0
1.798369025E0,2.416750938E-1,4.941776752E0,9.049654961E0
1.800683765E0,2.560320199E-1,4.951946259E0,8.972486496E0
1.802998504E0,2.656033039E-1,4.977071285E0,8.895915985E0
1.805313192E0,2.656033039E-1,5.000999451E0,8.833703041E0
1.807627931E0,2.805584669E-1,5.015954494E0,8.766703606E0
1.809942619E0,2.518445849E-1,5.026124001E0,8.670990944E0
1.812257358E0,2.566302419E-1,5.026124001E0,8.618349075E0
1.814572046E0,2.321037948E-1,5.065007210E0,8.541778564E0
1.816886785E0,1.890329868E-1,5.089533806E0,8.450253487E0
1.819201473E0,1.268195957E-1,5.118247509E0,8.392825127E0
1.821516213E0,5.443671346E-2,5.157131195E0,8.306683540E0
1.823830900E0,-3.230310604E-2,5.171487808E0,8.258827209E0
1.826145640E0,-1.094716340E-1,5.200201988E0,8.182256699E0
1.828460379E0,-2.201396823E-1,5.248058319E0,8.111070633E0
1.830775067E0,-3.158525825E-1,5.253442287E0,7.971688747E0
1.833089806E0,-3.924229145E-1,5.243272781E0,7.866404533E0
1.835404494E0,-4.695914388E-1,5.224130154E0,7.761120319E0
1.837719233E0,-5.802595019E-1,5.248656273E0,7.631907940E0
1.840033921E0,-6.813562512E-1,5.248656273E0,7.497311592E0
1.842348660E0,-7.579265833E-1,5.229514122E0,7.357929707E0
1.844663348E0,-8.440681696E-1,5.239085197E0,7.233502865E0
1.846978088E0,-9.451649189E-1,5.219344616E0,7.127620220E0
1.849292775E0,-1.016949654E0,5.224130154E0,7.041478634E0
1.851607515E0,-1.113260746E0,5.219344616E0,6.960123062E0
1.853922202E0,-1.161117196E0,5.228915691E0,6.921837807E0
1.856236942E0,-1.204187989E0,5.233701229E0,6.888338089E0
1.858551681E0,-1.237687469E0,5.213960648E0,6.878767014E0
1.860866369E0,-1.266999602E0,5.237888813E0,6.873981476E0
1.863181108E0,-1.257428288E0,5.233701229E0,6.859624386E0
1.865495796E0,-1.262213945E0,5.228317261E0,6.864409924E0
1.867810535E0,-1.223330617E0,5.228915691E0,6.873981476E0
1.870125223E0,-1.185045362E0,5.228915691E0,6.869195461E0
1.872439963E0,-1.137188911E0,5.224130154E0,6.893123627E0
1.874754650E0,-1.074377418E0,5.234299660E0,6.917052269E0
1.877069390E0,-1.012163997E0,5.243870735E0,6.960123062E0
1.879384077E0,-9.643075466E-1,5.273182869E0,7.017550468E0
1.881698817E0,-9.260223508E-1,5.273182869E0,7.085147858E0
1.884013556E0,-8.733802438E-1,5.297111034E0,7.128218651E0
1.886328244E0,-8.303094506E-1,5.307280540E0,7.161718369E0
1.888642983E0,-7.770691514E-1,5.335994720E0,7.204789162E0
1.890957671E0,-7.148557901E-1,5.346164227E0,7.228717327E0
1.893272410E0,-6.622136831E-1,5.341378212E0,7.252645493E0
1.895587098E0,-5.802595019E-1,5.341976643E0,7.276573658E0
1.897901838E0,-5.371887088E-1,5.371288776E0,7.296314240E0
1.900216525E0,-5.078766346E-1,5.371288776E0,7.281957626E0
1.902531265E0,-4.689932466E-1,5.352146149E0,7.281359196E0
1.904845952E0,-4.833501875E-1,5.352146149E0,7.257431030E0
1.907160692E0,-4.546363056E-1,5.347958565E0,7.219145775E0
1.909475379E0,-4.211367965E-1,5.358128071E0,7.180860519E0
1.911790119E0,-3.822534084E-1,5.358128071E0,7.176074982E0
1.914104858E0,-3.200400174E-1,5.363512039E0,7.161718369E0
1.916419546E0,-2.620140910E-1,5.364109993E0,7.128218651E0
1.918734285E0,-1.950150430E-1,5.393422127E0,7.094718933E0
1.921048973E0,-9.391828626E-2,5.408975601E0,7.056434155E0
1.923363713E0,-2.691925503E-2,5.462814331E0,7.003791809E0
1.925678400E0,5.503492057E-2,5.482554913E0,6.999006271E0
1.927993140E0,1.465603858E-1,5.512465000E0,6.960721016E0
1.930307827E0,2.470589429E-1,5.556732178E0,6.951149940E0
1.932622567E0,3.427718580E-1,5.610570908E0,6.956533432E0
1.934937306E0,4.295116663E-1,5.649454117E0,6.980462074E0
1.937251994E0,5.491527915E-1,5.678766251E0,6.999604225E0
1.939566733E0,6.263213158E-1,5.727818966E0,7.048058987E0
1.941881421E0,7.082754970E-1,5.761917114E0,7.067201614E0
1.944196160E0,7.609176040E-1,5.805585861E0,7.106084824E0
1.946510848E0,7.896314859E-1,5.834300041E0,7.173084259E0
1.948825588E0,7.938188910E-1,5.848656654E0,7.225726128E0
1.951140275E0,7.651050687E-1,5.863013744E0,7.274180889E0
1.953455015E0,6.879364848E-1,5.847460270E0,7.326822758E0
1.955769702E0,5.910272002E-1,5.851647854E0,7.369893551E0
1.958084442E0,4.851447940E-1,5.836094379E0,7.403991699E0
1.960399181E0,3.846462369E-1,5.777470112E0,7.423133850E0
1.962713869E0,2.739782035E-1,5.733202934E0,7.436892986E0
1.965028608E0,1.591227055E-1,5.693721294E0,7.441678524E0
1.967343296E0,6.281159073E-2,5.639883041E0,7.432106972E0
1.969658035E0,-3.290131316E-2,5.596213818E0,7.407580853E0
1.971972723E0,-1.142572835E-1,5.542375565E0,7.393223763E0
1.974287463E0,-1.860419661E-1,5.513063431E0,7.359126091E0
1.976602150E0,-2.434697002E-1,5.464608669E0,7.310671329E0
1.978916890E0,-3.397808075E-1,5.454439163E0,7.315456867E0
1.981231577E0,-3.541377485E-1,5.420341492E0,7.301100254E0
1.983546317E0,-3.924229145E-1,5.425127029E0,7.301100254E0
1.985861004E0,-3.684946895E-1,5.429912567E0,7.325028419E0
1.988175744E0,-3.637090325E-1,5.439484119E0,7.353742123E0
1.990490483E0,-3.254238665E-1,5.459224701E0,7.407580853E0
1.992805171E0,-2.775674164E-1,5.483152866E0,7.465008259E0
1.995119910E0,-2.488535494E-1,5.507081509E0,7.503293514E0
1.997434598E0,-1.968096644E-1,5.565107346E0,7.570890903E0
1.999749338E0,-1.339980662E-1,5.580062389E0,7.628318787E0
2.002064025E0,-9.631111473E-2,5.608776093E0,7.704888821E0
2.004378765E0,-5.802594870E-2,5.638088226E0,7.738986492E0
2.006693452E0,-5.383851007E-3,5.672185898E0,7.767700672E0
2.009008192E0,3.349951655E-2,5.681757450E0,7.791628838E0
2.011322879E0,6.221338734E-2,5.706283569E0,7.796414375E0
2.013637619E0,6.221338734E-2,5.701498032E0,7.801199913E0
2.015952358E0,5.742774159E-2,5.696712494E0,7.791628838E0
2.018267046E0,5.264209956E-2,5.706283569E0,7.782057285E0
2.020581785E0,3.290131316E-2,5.706283569E0,7.777271748E0
2.022896473E0,8.973085321E-3,5.715855122E0,7.767700672E0
2.025211213E0,-1.495514158E-2,5.720640659E0,7.748558044E0
2.027525900E0,-4.845465720E-2,5.705685616E0,7.743772507E0
2.029840640E0,-6.759724021E-2,5.724828243E0,7.724629879E0
2.032155327E0,-1.256231815E-1,5.695516109E0,7.729415417E0
2.034470067E0,-1.639083475E-1,5.700301647E0,7.734200954E0
2.036784754E0,-2.261217386E-1,5.690132141E0,7.700701237E0
2.039099494E0,-2.697907388E-1,5.714060307E0,7.686344624E0
2.041414233E0,-3.415754437E-1,5.684748173E0,7.648059368E0
2.043728921E0,-3.996013701E-1,5.694319725E0,7.600203037E0
2.046043660E0,-4.474578202E-1,5.675177097E0,7.557132244E0
2.048358348E0,-4.618147612E-1,5.684748173E0,7.490133286E0
2.050673088E0,-4.953143001E-1,5.684748173E0,7.470990658E0
2.052987775E0,-5.192425251E-1,5.679962635E0,7.475776196E0
2.055302515E0,-5.587241054E-1,5.699105263E0,7.466204643E0
2.057617202E0,-5.778666735E-1,5.699105263E0,7.461419106E0
2.059931942E0,-5.778666735E-1,5.727818966E0,7.504489899E0
2.062246681E0,-5.874379873E-1,5.737390518E0,7.529016495E0
2.064561369E0,-5.587241054E-1,5.737390518E0,7.576872826E0
2.066876056E0,-5.102694035E-1,5.746961594E0,7.596015453E0
2.069190796E0,-4.426721931E-1,5.752345562E0,7.629515171E0
2.071505535E0,-3.326023519E-1,5.791228771E0,7.677371502E0
2.073820223E0,-2.464607358E-1,5.815755367E0,7.696514130E0
2.076134963E0,-1.597209126E-1,5.816353798E0,7.753942013E0
2.078449650E0,-8.315058798E-2,5.835496426E0,7.797610760E0
2.080764390E0,-6.400800496E-2,5.859424591E0,7.864609718E0
2.083079077E0,-6.879365444E-2,5.878567219E0,7.941180229E0
2.085393817E0,-5.982056633E-2,5.897111416E0,8.075776100E0
2.087708504E0,-9.870393574E-2,5.906084538E0,8.210372925E0
2.090023244E0,-1.130608693E-1,5.919843197E0,8.306085587E0
2.092337983E0,-1.423729509E-1,5.934200287E0,8.358727455E0
2.094652671E0,-1.280160099E-1,5.928816319E0,8.449654579E0
2.096967410E0,-1.328016520E-1,5.933601856E0,8.517850876E0
2.099282098E0,-9.930214286E-2,5.904289722E0,8.584849358E0
2.101596838E0,-8.973085135E-2,5.865406513E0,8.685347557E0
2.103911525E0,-6.041877344E-2,5.821139336E0,8.809774399E0
2.106226265E0,-3.649054468E-2,5.787041664E0,8.929415703E0
2.108540952E0,-3.649054468E-2,5.762515068E0,9.053842545E0
2.110855692E0,-2.213360928E-2,5.713462353E0,9.144769669E0
2.113170431E0,-1.734796353E-2,5.669793129E0,9.220742226E0
2.115485119E0,-1.256231871E-2,5.645267010E0,9.278169632E0
2.117799858E0,1.136590727E-2,5.620740414E0,9.340383530E0
2.120114546E0,3.589234129E-2,5.611168861E0,9.359525681E0
2.122429285E0,6.460621208E-2,5.620740414E0,9.403194427E0
2.124743973E0,8.374879509E-2,5.640480995E0,9.417551994E0
2.127058713E0,7.836493850E-2,5.678766251E0,9.417551994E0
2.129373400E0,4.486542568E-2,5.697908878E0,9.422337532E0
2.131688140E0,1.555334684E-2,5.780461311E0,9.399007797E0
2.134002827E0,-5.204389244E-2,5.847460270E0,9.375079155E0
2.136317567E0,-8.614161611E-2,5.915655613E0,9.308678627E0
2.138632306E0,-1.298106313E-1,5.992824078E0,9.222537041E0
2.140946994E0,-1.393819153E-1,6.075974941E0,9.103493690E0
2.143261733E0,-2.117647976E-1,6.168098450E0,8.998209953E0
2.145576421E0,-2.267199457E-1,6.256034851E0,8.845666885E0
2.147891160E0,-2.506481707E-1,6.324230194E0,8.697312355E0
2.150205848E0,-2.847459018E-1,6.411568165E0,8.548956871E0
2.152520588E0,-3.182454109E-1,6.484549522E0,8.414361000E0
2.154835275E0,-3.182454109E-1,6.557530403E0,8.270791054E0
2.157150015E0,-3.188436031E-1,6.620940208E0,8.170890808E0
2.159464702E0,-3.284149170E-1,6.674778938E0,8.079963684E0
2.161779442E0,-3.236292601E-1,6.713662148E0,7.998608112E0
2.164094181E0,-3.284149170E-1,6.723831654E0,7.931608677E0
2.166408869E0,-3.038884699E-1,6.729215622E0,7.850253105E0
2.168723608E0,-2.943171859E-1,6.738786697E0,7.816753387E0
2.171038296E0,-2.464607358E-1,6.720242500E0,7.773084164E0
2.173353035E0,-1.692921966E-1,6.706483841E0,7.720442295E0
2.175667723E0,-9.212367237E-2,6.683153629E0,7.696514130E0
2.177982463E0,4.187439568E-3,6.683752060E0,7.671987534E0
2.180297150E0,9.571290761E-2,6.640681267E0,7.667201996E0
2.182611890E0,2.255235314E-1,6.631708145E0,7.724629879E0
2.184926629E0,3.218346536E-1,6.612565517E0,7.801199913E0
2.187241317E0,4.085744619E-1,6.583253384E0,7.935198307E0
2.189556056E0,4.755735099E-1,6.544369698E0,8.107481003E0
2.191870744E0,5.234299302E-1,6.533602238E0,8.299505234E0
2.194185483E0,5.665007830E-1,6.485147476E0,8.490931511E0
2.196500171E0,6.005984545E-1,6.440282345E0,8.697312355E0
2.198814910E0,6.293123364E-1,6.372086525E0,8.922237396E0
2.201129598E0,6.777670383E-1,6.288936138E0,9.104091644E0
2.203444338E0,7.310073376E-1,6.196812630E0,9.314660072E0
2.205759025E0,7.549355626E-1,6.099305153E0,9.524630547E0
2.208073765E0,8.081758618E-1,5.991627693E0,9.745368004E0
2.210388504E0,8.225327730E-1,5.864808083E0,9.994221687E0
2.212703192E0,8.374879360E-1,5.737988472E0,1.021854877E1
2.215017931E0,8.470591903E-1,5.615954876E0,1.045783138E1
2.217319702E0,8.715856671E-1,5.498706341E0,1.068275642E1
2.219647358E0,8.859425783E-1,5.382056236E0,1.087418270E1
2.221962046E0,9.008977413E-1,5.270191669E0,1.100818062E1
2.224263869E0,8.967102766E-1,5.163113117E0,1.113679504E1
2.226591473E0,9.014959335E-1,5.051846981E0,1.123190975E1
2.228906213E0,8.973084688E-1,4.978865623E0,1.126540947E1
2.231220900E0,9.122636318E-1,4.886742115E0,1.126481056E1
2.233535640E0,9.026923180E-1,4.843072891E0,1.124088287E1
2.235850379E0,9.074779749E-1,4.823930264E0,1.116849995E1
2.238165067E0,9.080761671E-1,4.810171604E0,1.103928757E1
2.240479806E0,9.032905698E-1,4.835296154E0,1.088614655E1
2.242794494E0,8.554341197E-1,4.850251675E0,1.070309544E1
2.245109233E0,8.362914920E-1,4.919643402E0,1.048774147E1
2.247423921E0,8.075776696E-1,4.988437176E0,1.024367332E1
2.249738660E0,7.645068169E-1,5.085944653E0,9.975677490E0
2.252053348E0,7.304090858E-1,5.188836098E0,9.674181938E0
2.254368088E0,7.112665176E-1,5.267200947E0,9.381659508E0
2.256682827E0,6.634100676E-1,5.379663467E0,9.075378418E0
2.258984598E0,6.245267391E-1,5.496912003E0,8.802596092E0
2.261312254E0,5.808576941E-1,5.589633465E0,8.525029182E0
2.263626942E0,5.330012441E-1,5.667998791E0,8.285148621E0
2.265928765E0,5.036891699E-1,5.746363640E0,8.065009117E0
2.268256369E0,5.132604837E-1,5.819344521E0,7.907082558E0
2.270571108E0,5.228317380E-1,5.858826160E0,7.763513088E0
2.272872931E0,5.467599630E-1,5.912664890E0,7.639086246E0
2.275200535E0,6.149554253E-1,5.928217888E0,7.576872826E0
2.277515223E0,6.436693072E-1,5.938387394E0,7.514659405E0
2.279829963E0,6.921239495E-1,5.953342915E0,7.505088329E0
2.282144650E0,7.399803996E-1,5.962913990E0,7.509873867E0
2.284459390E0,8.267202377E-1,5.968297958E0,7.543373585E0
2.286774129E0,8.745766878E-1,5.939583778E0,7.596015453E0
2.289088817E0,9.272187948E-1,5.929414749E0,7.691728592E0
2.291403556E0,9.756734371E-1,5.905486107E0,7.787441254E0
2.293718244E0,9.948160052E-1,5.885147095E0,7.902296543E0
2.296032983E0,9.948160052E-1,5.816951752E0,8.088936806E0
2.298347671E0,9.900303483E-1,5.767899036E0,8.256434441E0
2.300662410E0,9.224331379E-1,5.737390518E0,8.429315567E0
2.302977150E0,8.793623447E-1,5.659025669E0,8.587840080E0
2.305291838E0,8.213363886E-1,5.585446358E0,8.716454506E0
2.307606577E0,7.591229677E-1,5.511867046E0,8.826524734E0
2.309921265E0,6.969096065E-1,5.423930645E0,8.936594009E0
2.312236004E0,6.442674994E-1,5.316852093E0,9.012566566E0
2.314550692E0,6.209374666E-1,5.229514122E0,9.079565048E0
2.316865431E0,5.820540786E-1,5.137390137E0,9.122037888E0
2.319180119E0,5.539384484E-1,5.050052166E0,9.131011009E0
2.321494858E0,5.300102234E-1,4.977071285E0,9.131011009E0
2.323809598E0,5.060819983E-1,4.923830986E0,9.111269951E0
2.326124285E0,4.971089065E-1,4.870590687E0,9.068199158E0
2.328439025E0,4.731806815E-1,4.846064091E0,9.029315948E0
2.330753713E0,4.348955154E-1,4.817350388E0,8.947959900E0
2.333068452E0,4.546363056E-1,4.813162804E0,8.866603851E0
2.335383140E0,4.594219327E-1,4.832903385E0,8.785248756E0
2.337697879E0,4.498506486E-1,4.867001057E0,8.699107170E0
2.340012567E0,4.444667995E-1,4.907081127E0,8.608179092E0
2.342327306E0,4.642075896E-1,4.945964336E0,8.478368759E0
2.344642046E0,4.450650215E-1,4.975874901E0,8.373085022E0
2.346956733E0,4.498506486E-1,5.009972572E0,8.258229256E0
2.349271473E0,4.546363056E-1,5.068596363E0,8.129016876E0
2.351586160E0,4.594219327E-1,5.093122959E0,8.042875290E0
2.353900900E0,4.205385745E-1,5.117649555E0,7.942376614E0
2.356215588E0,4.109672904E-1,5.142175674E0,7.831708431E0
2.358530327E0,4.013960063E-1,5.181657314E0,7.745566845E0
2.360845015E0,3.918247223E-1,5.210969448E0,7.649854183E0
2.363159754E0,3.487538993E-1,5.225326538E0,7.578069210E0
2.365474442E0,3.439682424E-1,5.245067120E0,7.515855789E0
2.367789181E0,3.200400174E-1,5.259424210E0,7.463213921E0
2.370103921E0,2.907279432E-1,5.288736343E0,7.405786037E0
2.372418608E0,2.620140910E-1,5.283950806E0,7.338188648E0
2.374733348E0,2.380858511E-1,5.318048477E0,7.271189690E0
2.377048035E0,2.237289101E-1,5.328217983E0,7.218547821E0
2.379362775E0,1.854437590E-1,5.347360611E0,7.161119938E0
2.381677463E0,1.806581169E-1,5.356931686E0,7.113263607E0
2.383992202E0,1.465603858E-1,5.391029358E0,7.074978352E0
2.386306942E0,1.178465188E-1,5.400600910E0,7.046862602E0
2.388621629E0,6.939185411E-2,5.434698582E0,7.003791809E0
2.390936317E0,3.589234129E-2,5.468197823E0,6.970292568E0
2.393251056E0,-7.776673418E-3,5.496912003E0,6.946363926E0
2.395565796E0,-4.606183618E-2,5.511268616E0,6.946363926E0
2.397880483E0,-8.913264424E-2,5.506483078E0,6.946363926E0
2.400195223E0,-1.088734269E-1,5.510670662E0,6.941578388E0
2.402509910E0,-1.178465188E-1,5.501099110E0,6.927221775E0
2.404824650E0,-9.391828626E-2,5.511268616E0,6.932007313E0
2.407139338E0,-3.649054468E-2,5.506483078E0,6.912864685E0
2.409454077E0,2.153540403E-2,5.516652584E0,6.917650223E0
2.411768817E0,7.417750359E-2,5.512465000E0,6.903293133E0
2.414083504E0,1.274178028E-1,5.502893925E0,6.893722057E0
2.416398244E0,1.944168359E-1,5.478965759E0,6.903293133E0
2.418712931E0,2.285145670E-1,5.478965759E0,6.917650223E0
2.421027671E0,2.428714931E-1,5.483751297E0,6.946363926E0
2.423342358E0,2.476571500E-1,5.459823132E0,7.003791809E0
2.425657098E0,2.859423161E-1,5.474180222E0,7.056434155E0
2.427971785E0,3.002992272E-1,5.459224701E0,7.123433113E0
2.430286525E0,3.098705411E-1,5.454439163E0,7.190432072E0
2.432601213E0,3.194418252E-1,5.449055195E0,7.214360237E0
2.434915952E0,3.050848842E-1,5.425127029E0,7.247859955E0
2.437230692E0,3.146561682E-1,5.391029358E0,7.257431030E0
2.439545379E0,2.763710022E-1,5.391029358E0,7.238288403E0
2.441860119E0,2.524427772E-1,5.361717224E0,7.214360237E0
2.444174806E0,2.285145670E-1,5.337789059E0,7.175477028E0
2.446489546E0,1.710868180E-1,5.294120312E0,7.118049145E0
2.448804233E0,1.136590764E-1,5.260022163E0,7.060023308E0
2.451118973E0,7.058826834E-2,5.250451088E0,6.993024349E0
2.453433713E0,1.794617064E-2,5.236093998E0,6.945167542E0
2.455748400E0,-5.383851007E-2,5.206781864E0,6.916453838E0
2.458063140E0,-1.016949639E-1,5.172684193E0,6.877570629E0
2.460377827E0,-1.357926875E-1,5.172684193E0,6.839285374E0
2.462692567E0,-2.123630047E-1,5.162514687E0,6.844070911E0
2.465007254E0,-2.895315289E-1,5.161916733E0,6.834499836E0
2.467321994E0,-3.326023519E-1,5.152345181E0,6.863213539E0
2.469636681E0,-3.858426511E-1,5.180460930E0,6.868597507E0
2.471951421E0,-4.049852192E-1,5.180460930E0,6.887740135E0
2.474266160E0,-4.677968323E-1,5.185246468E0,6.892525673E0
2.476580848E0,-4.917250574E-1,5.184648514E0,6.897311211E0
2.478895588E0,-4.869394004E-1,5.208576679E0,6.921239376E0
2.481210275E0,-4.390829504E-1,5.218746185E0,6.897311211E0
2.483525015E0,-3.762713671E-1,5.243870735E0,6.868597507E0
2.485839702E0,-3.188436031E-1,5.268397331E0,6.854240417E0
2.488154442E0,-2.662015259E-1,5.302495003E0,6.844669342E0
2.490469129E0,-2.374876440E-1,5.331807137E0,6.840481758E0
2.492783869E0,-2.327020019E-1,5.380261898E0,6.830910206E0
2.495098608E0,-2.327020019E-1,5.408975601E0,6.821339130E0
2.497413296E0,-2.380858511E-1,5.428118229E0,6.830910206E0
2.499728035E0,-2.380858511E-1,5.476572990E0,6.841079712E0
2.502042723E0,-2.045863420E-1,5.510670662E0,6.865008354E0
2.504357463E0,-1.998006850E-1,5.539384365E0,6.874579430E0
2.506672150E0,-2.051845491E-1,5.568696499E0,6.875177860E0
2.508986890E0,-1.621137410E-1,5.593223095E0,6.889534473E0
2.511301577E0,-1.136590764E-1,5.598008633E0,6.942176819E0
2.513616317E0,-5.623133108E-2,5.631507874E0,6.999604225E0
2.515931004E0,-8.374879137E-3,5.621936798E0,7.105486870E0
2.518245744E0,2.033899166E-2,5.645864964E0,7.225128174E0
2.520560483E0,4.845465720E-2,5.660222054E0,7.297510624E0
2.522875171E0,7.298108935E-2,5.640480995E0,7.364510059E0
2.525189910E0,8.733802289E-2,5.645267010E0,7.427321434E0
2.527504598E0,7.238288224E-2,5.625525951E0,7.460821152E0
2.529819338E0,4.366901144E-2,5.591428280E0,7.489534855E0
2.532134077E0,2.931207791E-2,5.586642742E0,7.484150887E0
2.534448765E0,-4.187439568E-3,5.566901684E0,7.450651646E0
2.536763504E0,-2.811566554E-2,5.542973518E0,7.421937466E0
2.539078192E0,-6.640082598E-2,5.528018475E0,7.398009300E0
2.541392931E0,-8.554340899E-2,5.532804012E0,7.373483181E0
2.543707619E0,-1.525424421E-1,5.523232937E0,7.349554539E0
2.546022358E0,-1.716850251E-1,5.528018475E0,7.335197926E0
2.548337046E0,-2.153540403E-1,5.532206059E0,7.339983463E0
2.550651785E0,-2.584248483E-1,5.546562672E0,7.320840836E0
2.552966473E0,-2.877369225E-1,5.580660820E0,7.287341595E0
2.555281213E0,-3.068794906E-1,5.566303730E0,7.220342159E0
2.557595952E0,-3.068794906E-1,5.609972477E0,7.172485828E0
2.559910640E0,-2.727817893E-1,5.620141983E0,7.105486870E0
2.562225379E0,-2.488535494E-1,5.630311489E0,7.028916359E0
2.564540067E0,-2.105683982E-1,5.655436516E0,6.966702938E0
2.566854806E0,-1.573280841E-1,5.694319725E0,6.875775814E0
2.569169494E0,-1.286142170E-1,5.729015827E0,6.775277138E0
2.571484233E0,-5.204389244E-2,5.758925915E0,6.717849731E0
2.573798921E0,-3.768695518E-2,5.807380676E0,6.669992924E0
2.576113660E0,1.974078640E-2,5.870790482E0,6.665207386E0
2.578428400E0,4.366901144E-2,5.924030781E0,6.684948444E0
2.580743088E0,5.742774159E-2,5.986842155E0,6.733402729E0
2.583057827E0,6.699903309E-2,6.035296917E0,6.833901405E0
2.585372515E0,6.640082598E-2,6.092724800E0,6.915855408E0
2.587687254E0,7.597211748E-2,6.121438503E0,6.988238335E0
2.590001942E0,6.580262631E-2,6.159723759E0,7.045666218E0
2.592316681E0,5.144568533E-2,6.174080849E0,7.103094101E0
2.594631369E0,4.187439755E-2,6.154339790E0,7.117451191E0
2.596946108E0,5.144568533E-2,6.139982700E0,7.150950432E0
2.599260848E0,4.666004330E-2,6.130411625E0,7.174878597E0
2.601575535E0,7.058826834E-2,6.096313953E0,7.232306480E0
2.603890275E0,8.973085135E-2,6.057430744E0,7.265805721E0
2.606204963E0,8.015955985E-2,6.032904148E0,7.313662529E0
2.608519702E0,8.015955985E-2,6.041877270E0,7.424330235E0
2.610834442E0,6.580262631E-2,6.031707764E0,7.524828911E0
2.613149129E0,4.127619043E-2,6.021538258E0,7.668996811E0
2.615463869E0,2.213360928E-2,6.020341873E0,7.812565804E0
2.617778556E0,-2.153540403E-2,6.019743443E0,7.956733704E0
2.620093296E0,-5.084748194E-2,5.994020939E0,8.090731621E0
2.622407983E0,-1.034895778E-1,5.988636971E0,8.200801849E0
2.624722723E0,-1.280160099E-1,6.007181168E0,8.277970314E0
2.627037410E0,-1.902294010E-1,5.987440586E0,8.311469078E0
2.629352150E0,-2.051845491E-1,6.011368752E0,8.316255569E0
2.631666838E0,-2.530409992E-1,6.026323795E0,8.306683540E0
2.633981577E0,-2.961117923E-1,6.026323795E0,8.244470596E0
2.636296317E0,-3.445664644E-1,6.055037498E0,8.187042236E0
2.638611004E0,-3.780659735E-1,6.069993019E0,8.105687141E0
2.640925744E0,-4.019941986E-1,6.089733601E0,8.038687706E0
2.643240431E0,-4.360919297E-1,6.108876228E0,7.971688747E0
2.645555171E0,-4.360919297E-1,6.142973900E0,7.895118237E0
2.647869858E0,-4.169493318E-1,6.201598167E0,7.804191113E0
2.650184598E0,-4.073780477E-1,6.245865345E0,7.703692436E0
2.652499285E0,-3.541377485E-1,6.275775433E0,7.622336388E0
2.654814025E0,-3.445664644E-1,6.319444656E0,7.550551891E0
2.657128765E0,-2.919243574E-1,6.344569206E0,7.473981380E0
2.659443452E0,-2.536391914E-1,6.393023968E0,7.426125050E0
2.661758192E0,-1.716850251E-1,6.403193474E0,7.426125050E0
2.664072879E0,-7.597211748E-2,6.433103561E0,7.421937466E0
2.666387619E0,5.982056609E-4,6.476772785E0,7.474579811E0
2.668702306E0,1.351944804E-1,6.501298904E0,7.532007694E0
2.671017046E0,2.548356056E-1,6.564708710E0,7.613961697E0
2.673331733E0,3.846462369E-1,6.579065800E0,7.728816986E0
2.675646473E0,5.383850932E-1,6.579664230E0,7.901698589E0
2.677961213E0,6.586244106E-1,6.613163471E0,8.069195747E0
2.680275900E0,7.543373108E-1,6.632306099E0,8.266005516E0
2.682590640E0,8.309076428E-1,6.641279221E0,8.429315567E0
2.684905327E0,9.074779749E-1,6.655636311E0,8.583054543E0
2.687220067E0,9.361918569E-1,6.665207386E0,8.683553696E0
2.689534754E0,9.218349457E-1,6.655037880E0,8.760722160E0
2.691849494E0,9.266205430E-1,6.655037880E0,8.808578491E0
2.694164233E0,9.457631707E-1,6.655037880E0,8.832506180E0
2.696478921E0,9.361918569E-1,6.644868374E0,8.832506180E0
2.698793660E0,9.314061999E-1,6.635297298E0,8.832506180E0
2.701108348E0,9.457631707E-1,6.659823418E0,8.755936623E0
2.703423088E0,9.122636318E-1,6.635895252E0,8.678768158E0
2.705737775E0,8.979067206E-1,6.641279221E0,8.573483467E0
2.708052515E0,8.309076428E-1,6.646064758E0,8.453244209E0
2.710367202E0,7.489534616E-1,6.684948444E0,8.319246292E0
2.712681942E0,6.388836503E-1,6.714260101E0,8.190033913E0
2.714996681E0,5.611169338E-1,6.757929325E0,8.041678429E0
2.717311369E0,4.701896608E-1,6.772286415E0,7.907082558E0
2.719626108E0,3.643072546E-1,6.811169624E0,7.778468132E0
2.721940796E0,3.451646566E-1,6.821339130E0,7.658228874E0
2.724255535E0,2.871387303E-1,6.879364967E0,7.587042332E0
2.726570223E0,2.823530734E-1,6.908677101E0,7.520043373E0
2.728884963E0,3.110669553E-1,6.933203697E0,7.462615490E0
2.731199702E0,3.493520916E-1,6.952944279E0,7.400402069E0
2.733514390E0,3.690928817E-1,6.977470875E0,7.380661488E0
2.735829129E0,3.876372576E-1,7.016354084E0,7.356733322E0
2.738143817E0,4.265206456E-1,7.040880680E0,7.347161770E0
2.740458556E0,4.498506486E-1,7.074379921E0,7.371089935E0
2.742773244E0,4.689932466E-1,7.108478069E0,7.391428947E0
2.745087983E0,4.833501875E-1,7.122834682E0,7.434499741E0
2.747402723E0,5.120640397E-1,7.137191772E0,7.487142086E0
2.749717410E0,5.551348329E-1,7.152146816E0,7.549953461E0
2.752032150E0,5.988038778E-1,7.161718369E0,7.669594765E0
2.754346838E0,6.179464459E-1,7.112665176E0,7.746165276E0
2.756661577E0,6.466603279E-1,7.102495670E0,7.875377655E0
2.758976265E0,6.418746710E-1,7.058228493E0,8.009375572E0
2.761291004E0,5.988038778E-1,7.018746853E0,8.157731056E0
2.763605692E0,5.647061467E-1,6.964310169E0,8.306085587E0
2.765920431E0,5.210371017E-1,6.900900364E0,8.435297966E0
2.768235171E0,4.683950245E-1,6.841678143E0,8.555537224E0
2.770549858E0,4.013960063E-1,6.768098831E0,8.651249886E0
2.772864598E0,3.337987661E-1,6.714260101E0,8.761320114E0
2.775179285E0,2.763710022E-1,6.669992924E0,8.823533058E0
2.777494025E0,2.237289101E-1,6.625725746E0,8.866005898E0
2.779808713E0,1.519442350E-1,6.576673031E0,8.937790871E0
2.782123452E0,1.082752272E-1,6.556932449E0,8.976076126E0
2.784438140E0,9.870393574E-2,6.522834301E0,9.033503532E0
2.786752879E0,7.956135273E-2,6.527021885E0,9.095717430E0
2.789067619E0,1.034895778E-1,6.527021885E0,9.168100357E0
2.791382306E0,9.870393574E-2,6.541378975E0,9.225527763E0
2.793697046E0,1.220339537E-1,6.574878216E0,9.326025963E0
2.796011733E0,1.172483116E-1,6.613163471E0,9.417551994E0
2.798326473E0,1.310070455E-1,6.632306099E0,9.479764938E0
2.800641160E0,9.272187948E-2,6.675376892E0,9.494720459E0
2.802955900E0,7.298108935E-2,6.719046116E0,9.475577354E0
2.805270588E0,2.931207791E-2,6.766902447E0,9.427721024E0
2.807585327E0,-2.811566554E-2,6.820741177E0,9.308678627E0
2.809900067E0,-1.244267747E-1,6.878767014E0,9.150752068E0
2.812214754E0,-2.015953064E-1,6.975676060E0,8.973683357E0
2.814529494E0,-2.787638307E-1,7.024130821E0,8.810971260E0
2.816844181E0,-3.696911037E-1,7.092326164E0,8.648259163E0
2.819158921E0,-4.666004181E-1,7.185048103E0,8.485547066E0
2.821473608E0,-5.539384484E-1,7.262216568E0,8.332406998E0
2.823788348E0,-6.257231236E-1,7.344769001E0,8.184051514E0
2.826103088E0,-6.885347366E-1,7.447062492E0,8.026723862E0
2.828417775E0,-7.513462901E-1,7.515257835E0,7.859225750E0
2.830732515E0,-7.806583643E-1,7.602595806E0,7.701299667E0
2.833047202E0,-7.758727670E-1,7.680960655E0,7.524230957E0
2.835361942E0,-7.663014531E-1,7.744370461E0,7.360920429E0
2.837676629E0,-7.465606928E-1,7.788637638E0,7.217351437E0
2.839991369E0,-7.232306600E-1,7.876574039E0,7.103094101E0
2.842306108E0,-6.652047038E-1,7.930412292E0,7.036095142E0
2.844620796E0,-6.269195080E-1,7.964509964E0,7.002595425E0
2.846935535E0,-5.258227587E-1,8.013563156E0,6.997809887E0
2.849250223E0,-4.295116663E-1,8.042875290E0,7.041478634E0
2.851564963E0,-3.337987661E-1,8.067401886E0,7.118049145E0
2.853879650E0,-2.285145670E-1,8.101499557E0,7.223333359E0
2.856194390E0,-9.391828626E-2,8.135597229E0,7.357929707E0
2.858509129E0,-1.794617064E-2,8.183453560E0,7.493124008E0
2.860823817E0,7.836493850E-2,8.183453560E0,7.607979774E0
2.863138556E0,1.405783296E-1,8.197810173E0,7.737192154E0
2.865453244E0,1.884347796E-1,8.178668022E0,7.832904816E0
2.867767983E0,2.027917206E-1,8.158926964E0,7.910073280E0
2.870082671E0,1.932204217E-1,8.143971443E0,7.996214867E0
2.872397410E0,1.692921966E-1,8.085348129E0,8.076972961E0
2.874712098E0,1.262213886E-1,8.045866013E0,8.158329010E0
2.877026838E0,6.879365444E-2,7.982456207E0,8.254041672E0
2.879341577E0,6.580262445E-3,7.894520283E0,8.325826645E0
2.881656265E0,-5.084748194E-2,7.821538925E0,8.387441635E0
2.883971004E0,-1.082752272E-1,7.685148239E0,8.453842163E0
2.886285692E0,-1.603191197E-1,7.573283672E0,8.511270523E0
2.888600431E0,-2.321037948E-1,7.466803074E0,8.549555779E0
2.890915119E0,-3.038884699E-1,7.363911629E0,8.615956306E0
2.893229858E0,-3.804588020E-1,7.247261524E0,8.678169250E0
2.895544546E0,-4.570291340E-1,7.120441914E0,8.725427628E0
2.897859285E0,-5.090730190E-1,7.003791809E0,8.758329391E0
2.900174025E0,-5.718846321E-1,6.892525673E0,8.757730484E0
2.902488713E0,-6.143572330E-1,6.790232658E0,8.771489143E0
2.904803452E0,-6.478567123E-1,6.707680225E0,8.785846710E0
2.907118140E0,-6.855437160E-1,6.610770702E0,8.794819832E0
2.909432879E0,-7.094719410E-1,6.533602238E0,8.799007416E0
2.911747567E0,-7.477570772E-1,6.470192432E0,8.813364029E0
2.914062306E0,-7.764709592E-1,6.412166595E0,8.846264839E0
2.916377046E0,-8.243274093E-1,6.372684956E0,8.879764557E0
2.918691733E0,-8.434699774E-1,6.338587284E0,8.908478737E0
2.921006473E0,-8.721838593E-1,6.324230194E0,8.913264275E0
2.923321160E0,-8.620143533E-1,6.285346985E0,8.937192917E0
2.925635900E0,-8.859425783E-1,6.256034851E0,8.955737114E0
2.927950588E0,-9.002995491E-1,6.217151642E0,8.984451294E0
2.930265327E0,-9.098708034E-1,6.178267956E0,9.003593445E0
2.932580015E0,-9.146564603E-1,6.144170284E0,9.061020851E0
2.934894754E0,-9.481559992E-1,6.105287075E0,9.080163956E0
2.937209494E0,-9.672985673E-1,6.051448345E0,9.108279228E0
2.939524181E0,-1.005583763E0,6.016752720E0,9.127422333E0
2.941838921E0,-1.034297585E0,5.963512421E0,9.141778946E0
2.944153608E0,-1.086939692E0,5.924628735E0,9.150752068E0
2.946468348E0,-1.153938770E0,5.900102615E0,9.126823425E0
2.948783035E0,-1.182652593E0,5.846862316E0,9.098110199E0
2.951097775E0,-1.225723386E0,5.817550182E0,9.049654961E0
2.953412515E0,-1.254437327E0,5.788836002E0,8.987442017E0
2.955727202E0,-1.263410330E0,5.755336761E0,8.934800148E0
2.958041942E0,-1.268195987E0,5.740979671E0,8.857631683E0
2.960356629E0,-1.258026481E0,5.722435474E0,8.771489143E0
2.962671369E0,-1.258026481E0,5.703292847E0,8.708678246E0
2.964986056E0,-1.243669510E0,5.712863922E0,8.651249886E0
2.967300796E0,-1.228714466E0,5.699105263E0,8.569893837E0
2.969615535E0,-1.214357495E0,5.709274769E0,8.487939835E0
2.971930223E0,-1.195214868E0,5.729015827E0,8.401798248E0
2.974244963E0,-1.165902853E0,5.734399319E0,8.315058708E0
2.976559650E0,-1.161117196E0,5.778666496E0,8.214560509E0
2.978874390E0,-1.161117196E0,5.788836002E0,8.080561638E0
2.981189077E0,-1.165902853E0,5.813961029E0,7.960920811E0
2.983503817E0,-1.189831018E0,5.819344521E0,7.817351341E0
2.985818556E0,-1.185045362E0,5.834300041E0,7.682755470E0
2.988133244E0,-1.150947690E0,5.859424591E0,7.543971539E0
2.990447983E0,-1.088136077E0,5.879763603E0,7.424330235E0
2.992762671E0,-1.035493970E0,5.904888153E0,7.308876991E0
2.995077410E0,-9.726824164E-1,5.925227165E0,7.188637257E0
2.997392098E0,-9.200403094E-1,5.949753284E0,7.102495670E0
2.999706838E0,-8.763712645E-1,5.984449387E0,7.054639339E0
3.002021525E0,-8.285148144E-1,6.008975983E0,7.045666218E0
3.004336265E0,-8.386843204E-1,6.038288116E0,7.031309128E0
3.006651004E0,-8.434699774E-1,6.062814236E0,7.016952515E0
3.008965692E0,-8.291130662E-1,6.062814236E0,7.040880680E0
3.011280431E0,-8.626125455E-1,6.067001820E0,7.016952515E0
3.013595119E0,-8.961120844E-1,6.062814236E0,6.954739094E0
3.015909858E0,-9.056833982E-1,6.043073654E0,6.911668301E0
3.018224546E0,-9.146564603E-1,6.024528980E0,6.820142746E0
3.020539285E0,-9.242277741E-1,6.000002861E0,6.748358250E0
3.022854025E0,-9.092726111E-1,5.980860233E0,6.647261143E0
3.025168713E0,-8.709874153E-1,5.957530022E0,6.551548481E0
3.027483452E0,-8.464609981E-1,5.962913990E0,6.464808464E0
3.029798140E0,-8.177471161E-1,5.977869034E0,6.407381058E0
3.032112879E0,-8.129615188E-1,5.983253002E0,6.316453457E0
3.034427567E0,-7.980063558E-1,5.983851433E0,6.253642082E0
3.036742306E0,-7.836494446E-1,5.993422508E0,6.210571289E0
3.039057046E0,-7.788637877E-1,6.028716564E0,6.138786316E0
3.041371733E0,-7.357929349E-1,6.067600250E0,6.076572895E0
3.043686473E0,-7.166503668E-1,6.102295876E0,6.004788399E0
3.046001160E0,-6.927221417E-1,6.117250919E0,5.909075737E0
3.048315900E0,-6.203392744E-1,6.166304111E0,5.813362598E0
3.050630588E0,-5.581258535E-1,6.205785751E0,5.703292847E0
3.052945327E0,-4.851447940E-1,6.187839508E0,5.587839127E0
3.055260067E0,-3.744767308E-1,6.227321148E0,5.520840168E0
3.057574754E0,-2.590230405E-1,6.247660160E0,5.439484119E0
3.059889494E0,-1.674975902E-1,6.272784710E0,5.377270699E0
3.062204181E0,-6.640082598E-2,6.278766632E0,5.324628353E0
3.064518921E0,1.016949583E-2,6.327819347E0,5.300700188E0
3.066833608E0,5.802594870E-2,6.357131481E0,5.295914650E0
3.069148348E0,9.152546525E-2,6.396014690E0,5.296513081E0
3.071463088E0,1.010967568E-1,6.419943333E0,5.306084156E0
3.073777775E0,1.250249892E-1,6.454041004E0,5.296513081E0
3.076092515E0,1.585244983E-1,6.473781586E0,5.282155991E0
3.078407202E0,1.824527234E-1,6.507281303E0,5.306682587E0
3.080721942E0,2.015953064E-1,6.531807423E0,5.277968407E0
3.083036629E0,2.255235314E-1,6.531807423E0,5.301896572E0
3.085351369E0,2.542374134E-1,6.561119556E0,5.354538918E0
3.087666108E0,2.446661144E-1,6.574878216E0,5.431707382E0
3.089980796E0,2.440679073E-1,6.598806858E0,5.513063431E0
3.092295535E0,1.962114573E-1,6.598208427E0,5.613562107E0
3.094610223E0,1.764706671E-1,6.616752625E0,5.757729530E0
3.096924963E0,1.328016520E-1,6.615556240E0,5.896512985E0
3.099239650E0,1.082752272E-1,6.619743824E0,6.016752720E0
3.101554390E0,1.226321608E-1,6.604788780E0,6.150750637E0
3.103869129E0,1.274178028E-1,6.565307140E0,6.251249313E0
3.106183817E0,1.274178028E-1,6.545566559E0,6.333203316E0
3.108498556E0,1.178465188E-1,6.497111797E0,6.424130440E0
3.110813244E0,8.913264424E-2,6.491727829E0,6.481558323E0
3.113127983E0,3.589234129E-2,6.476174355E0,6.558128834E0
3.115442671E0,2.392822644E-3,6.451648235E0,6.629913330E0
3.117757410E0,-6.939185411E-2,6.441478729E0,6.668198586E0
3.120072098E0,-1.130608693E-1,6.436094761E0,6.731009960E0
3.122386838E0,-1.417747438E-1,6.421139717E0,6.778866768E0
3.124701577E0,-1.663011760E-1,6.440282345E0,6.807580471E0
3.127016265E0,-1.615155339E-1,6.445067883E0,6.812366009E0
3.129331004E0,-1.417747438E-1,6.449853420E0,6.783652306E0
3.131645692E0,-1.369891018E-1,6.464808464E0,6.754938126E0
3.133960431E0,-9.391828626E-2,6.489335060E0,6.683153629E0
3.136275119E0,-8.434699476E-2,6.480361938E0,6.597012043E0
3.138589858E0,-7.896314561E-2,6.485745907E0,6.515058041E0
3.140904598E0,-8.374879509E-2,6.485745907E0,6.419344902E0
3.143219285E0,-1.124626622E-1,6.486343861E0,6.328417778E0
3.145534025E0,-1.411765367E-1,6.501298904E0,6.208178520E0
3.147848713E0,-1.555334777E-1,6.516254425E0,6.102295876E0
3.150163452E0,-1.890329868E-1,6.511468410E0,5.977869034E0
3.152478140E0,-2.273181528E-1,6.535995007E0,5.867799282E0
3.154792879E0,-2.464607358E-1,6.531807423E0,5.748157978E0
3.157107619E0,-2.608176768E-1,6.546762943E0,5.656632900E0
3.159422306E0,-2.512463629E-1,6.552146435E0,5.570491314E0
3.161737046E0,-2.847459018E-1,6.576074600E0,5.508277893E0
3.164051733E0,-2.991028428E-1,6.590431690E0,5.474778175E0
3.166366473E0,-2.991028428E-1,6.585646152E0,5.498706341E0
3.168681160E0,-3.284149170E-1,6.628716946E0,5.523232937E0
3.170995900E0,-3.571287692E-1,6.652645111E0,5.571089268E0
3.173310588E0,-3.768695593E-1,6.647859573E0,5.614160061E0
3.175625327E0,-3.625126183E-1,6.676573277E0,5.638686657E0
3.177940067E0,-3.290131092E-1,6.671787739E0,5.662614822E0
3.180254754E0,-2.709871531E-1,6.652645111E0,5.685945034E0
3.182569494E0,-2.087737769E-1,6.667600155E0,5.696114540E0
3.184884181E0,-1.651047617E-1,6.648457527E0,5.724229813E0
3.187198921E0,-1.220339537E-1,6.638886452E0,5.738586903E0
3.189513660E0,-1.316052526E-1,6.658029079E0,5.777470112E0
3.191828348E0,-1.561316848E-1,6.667600155E0,5.815755367E0
3.194143088E0,-2.039881349E-1,6.686144829E0,5.825326920E0
3.196457775E0,-2.763710022E-1,6.695715904E0,5.849255085E0
3.198772515E0,-3.290131092E-1,6.680760860E0,5.873183250E0
3.201087202E0,-3.918247223E-1,6.689733982E0,5.863611698E0
3.203401942E0,-4.540380836E-1,6.689733982E0,5.834897995E0
3.205716681E0,-5.318048596E-1,6.703492641E0,5.806184292E0
3.208031369E0,-5.509474277E-1,6.674778938E0,5.767899036E0
3.210346108E0,-5.748756528E-1,6.684350014E0,5.720042706E0
3.212660796E0,-5.844469070E-1,6.684350014E0,5.700900078E0
3.214975535E0,-6.323033571E-1,6.669992924E0,5.681757450E0
3.217290223E0,-6.466603279E-1,6.665207386E0,5.686542988E0
3.219604963E0,-6.759724021E-1,6.683752060E0,5.715256691E0
3.221919650E0,-6.951149702E-1,6.693323135E0,5.787639618E0
3.224234390E0,-7.004988194E-1,6.712465763E0,5.854638577E0
3.226549129E0,-6.765705943E-1,6.722036839E0,5.907280922E0
3.228863817E0,-6.622136831E-1,6.745965004E0,5.955137253E0
3.231178556E0,-6.382854581E-1,6.789634228E0,5.965306759E0
3.233493244E0,-6.095715761E-1,6.794419765E0,5.955735683E0
3.235807983E0,-5.856433511E-1,6.795018196E0,5.907878876E0
3.238122671E0,-5.515456200E-1,6.819544315E0,5.883950710E0
3.240437410E0,-5.078766346E-1,6.848856449E0,5.836094379E0
3.242752150E0,-4.791627228E-1,6.859025955E0,5.754738331E0
3.245066838E0,-4.600201547E-1,6.859624386E0,5.711069584E0
3.247381577E0,-4.743770957E-1,6.897909641E0,5.673382282E0
3.249696265E0,-4.791627228E-1,6.932007313E0,5.668596745E0
3.252011004E0,-5.282155871E-1,6.970292568E0,5.649454117E0
3.254325744E0,-6.149554253E-1,7.003791809E0,5.650052547E0
3.256640431E0,-6.969096065E-1,7.032505512E0,5.650052547E0
3.258955171E0,-7.501499057E-1,7.085147858E0,5.679364681E0
3.261269858E0,-8.171489239E-1,7.104290485E0,5.641079426E0
3.263584598E0,-8.464609981E-1,7.128218651E0,5.636293888E0
3.265899285E0,-8.847461939E-1,7.152745247E0,5.626722336E0
3.268214025E0,-9.284151793E-1,7.176673412E0,5.621936798E0
3.270528765E0,-9.523434043E-1,7.181458950E0,5.641079426E0
3.272843452E0,-9.523434043E-1,7.200601578E0,5.617749214E0
3.275158192E0,-9.523434043E-1,7.191030025E0,5.607579708E0
3.277472879E0,-9.475577474E-1,7.205387115E0,5.603392601E0
3.279787619E0,-9.284151793E-1,7.220342159E0,5.598606586E0
3.282102306E0,-8.949156404E-1,7.234699249E0,5.603392601E0
3.284417046E0,-8.518448472E-1,7.268796921E0,5.603392601E0
3.286731785E0,-7.800601721E-1,7.303493023E0,5.593821049E0
3.289046473E0,-7.076773047E-1,7.323233604E0,5.627320766E0
3.291361213E0,-6.263213158E-1,7.362117290E0,5.647061348E0
3.293675900E0,-5.784648657E-1,7.415357590E0,5.680561066E0
3.295990640E0,-5.060819983E-1,7.449455261E0,5.705087185E0
3.298305379E0,-4.534398913E-1,7.478767395E0,5.752943993E0
3.300620067E0,-4.247260094E-1,7.517052174E0,5.829514027E0
3.302934806E0,-4.205385745E-1,7.550551891E0,5.940182209E0
3.305249494E0,-4.067798555E-1,7.612765312E0,6.065207005E0
3.307564233E0,-4.115654826E-1,7.621738434E0,6.199205399E0
3.309878921E0,-4.217349887E-1,7.660023689E0,6.300900459E0
3.312193660E0,-4.797609448E-1,7.683353424E0,6.392425537E0
3.314508348E0,-5.084748268E-1,7.692326546E0,6.483353138E0
3.316823088E0,-5.718846321E-1,7.701299667E0,6.574280262E0
3.319137827E0,-6.538388133E-1,7.700701237E0,6.627520561E0
3.321452515E0,-7.070791125E-1,7.714460373E0,6.694519520E0
3.323767254E0,-7.746763229E-1,7.709076405E0,6.742375851E0
3.326081942E0,-8.321040869E-1,7.698308468E0,6.795018196E0
3.328396681E0,-8.560323119E-1,7.693522930E0,6.818946362E0
3.330711421E0,-8.703892231E-1,7.649854183E0,6.809374809E0
3.333026108E0,-8.560323119E-1,7.630711555E0,6.804589272E0
3.335340848E0,-8.315058947E-1,7.606783390E0,6.775277138E0
3.337655535E0,-8.219345808E-1,7.587640762E0,6.732206345E0
3.339970275E0,-8.075776696E-1,7.578069210E0,6.693921566E0
3.342284963E0,-7.686942816E-1,7.578667641E0,6.650850773E0
3.344599702E0,-7.495517135E-1,7.584051132E0,6.607779503E0
3.346914390E0,-7.399803996E-1,7.588837147E0,6.569494724E0
3.349229129E0,-7.058826685E-1,7.599006653E0,6.535397053E0
3.351543869E0,-6.723831892E-1,7.623532772E0,6.497709751E0
3.353858556E0,-6.340979934E-1,7.648059368E0,6.478567123E0
3.356173296E0,-5.670989752E-1,7.692326546E0,6.459424496E0
3.358487983E0,-4.989035130E-1,7.712067604E0,6.421139717E0
3.360802723E0,-3.984049559E-1,7.732406139E0,6.411568165E0
3.363117463E0,-2.685943544E-1,7.771289825E0,6.445067883E0
3.365432150E0,-1.531406492E-1,7.795815945E0,6.522236347E0
3.367746890E0,-3.828516230E-2,7.839485168E0,6.637091637E0
3.370061577E0,3.828516230E-2,7.878368378E0,6.757331371E0
3.372376317E0,9.092725813E-2,7.892725468E0,6.876972198E0
3.374691004E0,1.046859920E-1,7.920841217E0,7.006783009E0
3.377005744E0,1.286142170E-1,7.944769382E0,7.126423836E0
3.379320483E0,1.333998591E-1,7.939385414E0,7.261020184E0
3.381635171E0,1.184447184E-1,7.943572998E0,7.385447025E0
3.383949910E0,9.391828626E-2,7.932805061E0,7.534998417E0
3.386264598E0,6.041877344E-2,7.946564198E0,7.697710514E0
3.388579338E0,4.546362907E-2,7.926225185E0,7.846663475E0
3.390894025E0,1.615155302E-2,7.929814339E0,8.009375572E0
3.393208765E0,-3.649054468E-2,7.924430370E0,8.124231339E0
3.395523504E0,-7.537391037E-2,7.942974567E0,8.215756416E0
3.397838192E0,-1.333998591E-1,7.951947689E0,8.225327492E0
3.400152931E0,-2.057827413E-1,7.995616913E0,8.201399803E0
3.402467619E0,-2.973082066E-1,8.072785378E0,8.106285095E0
3.404782358E0,-3.690928817E-1,8.126026154E0,7.934001446E0
3.407097046E0,-4.462614357E-1,8.213961601E0,7.728219032E0
3.409411785E0,-5.234299302E-1,8.316853523E0,7.493722439E0
3.411726525E0,-5.868397355E-1,8.443074226E0,7.230511665E0
3.414041213E0,-6.490531564E-1,8.531010628E0,6.972086906E0
3.416355952E0,-6.927221417E-1,8.618947029E0,6.718447685E0
3.418670640E0,-7.118647099E-1,8.717052460E0,6.450451851E0
3.420985379E0,-7.357929349E-1,8.828917503E0,6.191428661E0
3.423300067E0,-7.453642488E-1,8.868997574E0,5.952146530E0
3.425614806E0,-7.501499057E-1,8.928219795E0,5.736194134E0
3.427929546E0,-7.357929349E-1,8.986844063E0,5.549553871E0
3.430244233E0,-7.214360237E-1,9.041280746E0,5.401198864E0
3.432558973E0,-6.879364848E-1,9.084949493E0,5.319842815E0
3.434873660E0,-6.394818425E-1,9.124430656E0,5.243870735E0
3.437188400E0,-5.676971674E-1,9.153742790E0,5.248656273E0
3.439503088E0,-4.713860750E-1,9.207581520E0,5.263013363E0
3.441817827E0,-3.511467278E-1,9.241679192E0,5.349753380E0
3.444132567E0,-2.410768867E-1,9.280562401E0,5.478965759E0
3.446447254E0,-1.214357466E-1,9.333803177E0,5.656632900E0
3.448761994E0,-4.007977992E-2,9.352347374E0,5.843871117E0
3.451076681E0,6.041877344E-2,9.361918449E0,6.040082455E0
3.453391421E0,1.034895778E-1,9.390632629E0,6.256034851E0
3.455706108E0,1.124626622E-1,9.384650230E0,6.458228111E0
3.458020848E0,1.220339537E-1,9.354142189E0,6.668796539E0
3.460335588E0,1.022931710E-1,9.314660072E0,6.908079147E0
3.462650275E0,1.070788130E-1,9.265008926E0,7.104888439E0
3.464965015E0,1.022931710E-1,9.172286987E0,7.305287361E0
3.467279702E0,1.028913707E-1,9.108877182E0,7.459026337E0
3.469594442E0,1.124626622E-1,9.020941734E0,7.616952896E0
3.471909181E0,1.513460279E-1,8.924032211E0,7.731808186E0
3.474223869E0,1.561316848E-1,8.831908226E0,7.812565804E0
3.476538608E0,1.567298770E-1,8.739186287E0,7.883752346E0
3.478853296E0,1.716850251E-1,8.657232285E0,7.912466049E0
3.481168035E0,1.770688742E-1,8.565707207E0,7.897511005E0
3.483482723E0,1.770688742E-1,8.488538742E0,7.872984886E0
3.485797463E0,1.776670814E-1,8.440083504E0,7.825128078E0
3.488112202E0,1.776670814E-1,8.401798248E0,7.762316704E0
3.490426890E0,1.591227055E-1,8.387441635E0,7.719245911E0
3.492741629E0,1.495514214E-1,8.358727455E0,7.676175117E0
3.495056317E0,1.447657645E-1,8.373085022E0,7.609176159E0
3.497371056E0,1.016949639E-1,8.392825127E0,7.532007694E0
3.499685796E0,7.776673883E-2,8.388039589E0,7.465008259E0
3.502000483E0,5.324030295E-2,8.412566185E0,7.398009300E0
3.504315223E0,3.409772366E-2,8.437092781E0,7.320840836E0
3.506629910E0,2.931207791E-2,8.446663857E0,7.263412952E0
3.508944650E0,5.982056609E-4,8.475975990E0,7.172485828E0
3.511259338E0,-4.247260094E-2,8.500502586E0,7.115057945E0
3.513574077E0,-8.614161611E-2,8.548956871E0,7.019345284E0
3.515888817E0,-1.387837082E-1,8.548956871E0,6.904489517E0
3.518203504E0,-2.111666054E-1,8.578269005E0,6.799205780E0
3.520518244E0,-2.733799815E-1,8.597412109E0,6.689135551E0
3.522832931E0,-3.308077157E-1,8.592626572E0,6.574280262E0
3.525147671E0,-3.978067636E-1,8.602795601E0,6.444469452E0
3.527462410E0,-4.893322289E-1,8.583653450E0,6.348756790E0
3.529777098E0,-5.425725579E-1,8.569295883E0,6.233303070E0
3.532091838E0,-6.047859192E-1,8.574081421E0,6.151947021E0
3.534406525E0,-6.669993401E-1,8.559724808E0,6.055635929E0
3.536721265E0,-6.909275651E-1,8.545368195E0,5.988636971E0
3.539035952E0,-7.052844763E-1,8.578866959E0,5.945566177E0
3.541350692E0,-7.052844763E-1,8.559724808E0,5.921638012E0
3.543665379E0,-6.622136831E-1,8.579465866E0,5.888138294E0
3.545980119E0,-6.329016089E-1,8.584849358E0,5.883352757E0
3.548294858E0,-5.802595019E-1,8.570492744E0,5.907280922E0
3.550609546E0,-5.371887088E-1,8.570492744E0,5.945566177E0
3.552924285E0,-4.689932466E-1,8.565707207E0,6.031707764E0
3.555238973E0,-3.684946895E-1,8.575278282E0,6.194419384E0
3.557553713E0,-2.871387303E-1,8.531010628E0,6.415755749E0
3.559868452E0,-1.764706671E-1,8.506484032E0,6.688537598E0
3.562183140E0,-7.118647546E-2,8.471788406E0,6.952346325E0
3.564497879E0,7.776673883E-2,8.417949677E0,7.234699249E0
3.566812567E0,1.926222295E-1,8.383852005E0,7.512865067E0
3.569127306E0,3.032902777E-1,8.315656662E0,7.723433495E0
3.571442046E0,3.852444589E-1,8.252246857E0,7.886145115E0
3.573756733E0,4.576273263E-1,8.160123825E0,7.991429329E0
3.576071473E0,4.869394004E-1,8.072785378E0,8.076972961E0
3.578386160E0,4.875376225E-1,7.990831375E0,8.081160545E0
3.580700900E0,4.396811724E-1,7.889136314E0,8.051848412E0
3.583015588E0,3.828516304E-1,7.811369419E0,7.984848976E0
3.585330327E0,3.397808075E-1,7.734200954E0,7.888537884E0
3.587645015E0,3.116651475E-1,7.667201996E0,7.744370461E0
3.589959754E0,2.590230405E-1,7.614559650E0,7.600203037E0
3.592274494E0,2.213360965E-1,7.566703320E0,7.436892986E0
3.594589181E0,1.734796464E-1,7.533204079E0,7.263412952E0
3.596903921E0,1.262213886E-1,7.519444942E0,7.076773167E0
3.599218608E0,9.272187948E-2,7.515257835E0,6.875177860E0
3.601533348E0,7.896314561E-2,7.506882668E0,6.649653912E0
3.603848088E0,7.896314561E-2,7.522436142E0,6.429514408E0
3.606162775E0,4.127619043E-2,7.513463020E0,6.193821430E0
3.608477515E0,3.170489892E-2,7.543373585E0,5.973681927E0
3.610792202E0,1.256231871E-2,7.573283672E0,5.752943993E0
3.613106942E0,-1.196411322E-3,7.564310551E0,5.566303730E0
3.615421629E0,3.589233849E-3,7.584649563E0,5.402993679E0
3.617736369E0,-2.033899166E-2,7.590033531E0,5.268995285E0
3.620051108E0,-1.555334684E-2,7.604988575E0,5.134399414E0
3.622365796E0,-5.383851007E-3,7.605587006E0,5.038087845E0
3.624680535E0,4.187439568E-3,7.615756035E0,4.971088886E0
3.626995223E0,4.187439568E-3,7.610970497E0,4.937589645E0
3.629309963E0,2.333002165E-2,7.625925541E0,4.908875465E0
3.631624702E0,-5.383851007E-3,7.621140003E0,4.899304390E0
3.633939390E0,-5.982056609E-4,7.621140003E0,4.894518852E0
3.636254129E0,-2.931207791E-2,7.596613884E0,4.894518852E0
3.638568817E0,-8.673982322E-2,7.572087288E0,4.899304390E0
3.640883556E0,-1.106680483E-1,7.528418064E0,4.893920422E0
3.643198244E0,-1.298106313E-1,7.508677483E0,4.893920422E0
3.645512983E0,-7.178468257E-2,7.460821152E0,4.889134884E0
3.647827723E0,-8.973085321E-3,7.412964344E0,4.936393261E0
3.650142410E0,6.340979785E-2,7.369295597E0,4.989035130E0
3.652457150E0,1.597209126E-1,7.331010342E0,5.065605640E0
3.654771838E0,2.123630047E-1,7.282555580E0,5.132604599E0
3.657086577E0,2.656033039E-1,7.253841877E0,5.214558601E0
3.659401317E0,2.703889608E-1,7.229315281E0,5.243272781E0
3.661716004E0,2.991028428E-1,7.200601578E0,5.280959606E0
3.664030744E0,2.751746178E-1,7.171289444E0,5.285745144E0
3.666345431E0,2.608176768E-1,7.156334400E0,5.295316696E0
3.668660171E0,2.273181528E-1,7.131209850E0,5.314459324E0
3.670974858E0,1.986042857E-1,7.092924595E0,5.300102234E0
3.673289598E0,1.507478207E-1,7.073183537E0,5.289932728E0
3.675604338E0,1.028913707E-1,7.029514790E0,5.285147190E0
3.677919025E0,4.067798331E-2,6.994818687E0,5.275575638E0
3.680233765E0,2.392822644E-3,6.966104984E0,5.227120876E0
3.682548452E0,-5.024927482E-2,6.941578388E0,5.164907455E0
3.684863192E0,-8.853443712E-2,6.908079147E0,5.106881618E0
3.687177879E0,-1.124626622E-1,6.864409924E0,5.044070244E0
3.689492619E0,-1.549352705E-1,6.811768055E0,4.986642361E0
3.691807358E0,-1.692921966E-1,6.777669907E0,4.938187599E0
3.694122046E0,-1.591227055E-1,6.739385128E0,4.866403103E0
3.696436785E0,-1.543370634E-1,6.696314335E0,4.808377266E0
3.698751473E0,-1.154536903E-1,6.653243542E0,4.755136967E0
3.701066213E0,-1.154536903E-1,6.624529362E0,4.683351994E0
3.703380952E0,-1.004985496E-1,6.591030121E0,4.630710125E0
3.705695640E0,-1.052841991E-1,6.567101955E0,4.558327198E0
3.708010379E0,-7.597211748E-2,6.534200668E0,4.496113777E0
3.710325067E0,-7.118647546E-2,6.524629116E0,4.418945312E0
3.712639806E0,-9.032905847E-2,6.544369698E0,4.375874519E0
3.714954494E0,-9.451649338E-2,6.515655994E0,4.318446636E0
3.717269233E0,-9.451649338E-2,6.534798622E0,4.265804768E0
3.719583973E0,-9.451649338E-2,6.544968128E0,4.217947960E0
3.721898660E0,-8.973085135E-2,6.564708710E0,4.165306091E0
3.724213400E0,-8.494520187E-2,6.574280262E0,4.112663746E0
3.726528088E0,-6.580262631E-2,6.594020844E0,4.074378967E0
3.728842827E0,-3.230310604E-2,6.633502483E0,4.021138668E0
3.731157567E0,4.007977992E-2,6.648457527E0,3.978067636E0
3.733472254E0,7.357929647E-2,6.672984123E0,3.954139471E0
3.735786994E0,1.022931710E-1,6.687939167E0,3.930211306E0
3.738101681E0,1.064806059E-1,6.740581512E0,3.945166349E0
3.740416421E0,8.255238086E-2,6.769893646E0,3.906881094E0
3.742731108E0,3.469592705E-2,6.789036274E0,3.878167391E0
3.745045848E0,-4.247260094E-2,6.832705021E0,3.811168194E0
3.747360588E0,-1.100698411E-1,6.866204739E0,3.734597921E0
3.749675275E0,-2.255235314E-1,6.899703979E0,3.634099483E0
3.751990015E0,-3.116651475E-1,6.904489517E0,3.552743435E0
3.754304702E0,-4.031906128E-1,6.928418159E0,3.461816072E0
3.756619442E0,-5.090730190E-1,6.942774773E0,3.351746321E0
3.758934181E0,-5.718846321E-1,6.937989235E0,3.299104214E0
3.761248869E0,-6.681957245E-1,6.932605267E0,3.265604734E0
3.763563608E0,-7.495517135E-1,6.932605267E0,3.227319479E0
3.765878296E0,-8.171489239E-1,6.922435760E0,3.217748165E0
3.768193035E0,-8.889335990E-1,6.907480717E0,3.246462107E0
3.770507723E0,-9.804590940E-1,6.891927242E0,3.289532900E0
3.772822463E0,-1.028315544E0,6.867401123E0,3.356531858E0
3.775137202E0,-1.081555843E0,6.847062111E0,3.461816072E0
3.777451890E0,-1.134796143E0,6.836892605E0,3.552743435E0
3.779766629E0,-1.153938770E0,6.826124668E0,3.672982693E0
3.782081317E0,-1.192822099E0,6.806384087E0,3.768695593E0
3.784396056E0,-1.188036442E0,6.790830612E0,3.893122435E0
3.786710796E0,-1.197607756E0,6.790232658E0,4.003192425E0
3.789025483E0,-1.192822099E0,6.775277138E0,4.119244099E0
3.791340223E0,-1.174277663E0,6.799205780E0,4.253242016E0
3.793654910E0,-1.135992527E0,6.808178425E0,4.416552544E0
3.795969650E0,-1.049850941E0,6.832107067E0,4.555335999E0
3.798284390E0,-9.684949517E-1,6.856035233E0,4.733003139E0
3.800599077E0,-8.823533654E-1,6.875177860E0,4.881358147E0
3.802913817E0,-8.009973764E-1,6.894320011E0,5.030311584E0
3.805228504E0,-6.999006271E-1,6.908677101E0,5.189434052E0
3.807543244E0,-6.191428304E-1,6.946962357E0,5.328217983E0
3.809857931E0,-5.569294691E-1,6.971488953E0,5.448457241E0
3.812172671E0,-4.456632137E-1,6.995417118E0,5.572884083E0
3.814487410E0,-3.355933726E-1,7.005586624E0,5.663811207E0
3.816802098E0,-2.105683982E-1,7.039684296E0,5.721837044E0
3.819116838E0,-8.075776696E-2,7.079165936E0,5.798407555E0
3.821431525E0,7.716853172E-2,7.103692055E0,5.851049423E0
3.823746265E0,1.734796464E-1,7.148557663E0,5.885147095E0
3.826060952E0,2.596212626E-1,7.177869797E0,5.894718647E0
3.828375692E0,3.026920557E-1,7.226324558E0,5.909075737E0
3.830690431E0,3.553341627E-1,7.275377274E0,5.895316601E0
3.833005119E0,3.744767308E-1,7.308876991E0,5.895316601E0
3.835319858E0,3.792623878E-1,7.367500782E0,5.881557941E0
3.837634546E0,3.936193287E-1,7.392027378E0,5.819344521E0
3.839949285E0,3.643072546E-1,7.459624767E0,5.761917114E0
3.842264025E0,3.164508045E-1,7.488936901E0,5.685346603E0
3.844578713E0,2.871387303E-1,7.512865067E0,5.599205017E0
3.846893452E0,2.201396823E-1,7.551748276E0,5.479563713E0
3.849208140E0,1.525424421E-1,7.590631485E0,5.393422127E0
3.851522879E0,6.101697683E-2,7.634300709E0,5.288137913E0
3.853837619E0,-2.512463741E-2,7.672585964E0,5.201996326E0
3.856152306E0,-1.501496136E-1,7.691728592E0,5.086542606E0
3.858467046E0,-2.416750938E-1,7.710870743E0,4.976472855E0
3.860781733E0,-3.475574851E-1,7.730013371E0,4.880760193E0
3.863096473E0,-4.582255483E-1,7.753942013E0,4.794618607E0
3.865411160E0,-5.688936114E-1,7.768298626E0,4.718048096E0
3.867725900E0,-6.556333899E-1,7.787441254E0,4.674977303E0
3.870040640E0,-7.280163169E-1,7.825726509E0,4.594219685E0
3.872355327E0,-8.003991842E-1,7.864011765E0,4.579862595E0
3.874670067E0,-8.386843204E-1,7.873582840E0,4.594219685E0
3.876984754E0,-8.775677085E-1,7.916653633E0,4.618745804E0
3.879299494E0,-9.164510965E-1,7.940581799E0,4.671388149E0
3.881614181E0,-9.308080077E-1,7.988438606E0,4.705485821E0
3.883928921E0,-9.505487680E-1,7.988438606E0,4.743771076E0
3.886243660E0,-9.840483069E-1,8.026723862E0,4.777270317E0
3.888558348E0,-1.003789067E0,8.055437088E0,4.825725079E0
3.890873088E0,-1.003789067E0,8.079365730E0,4.864010334E0
3.893187775E0,-9.942178130E-1,8.093722343E0,4.868795872E0
3.895502515E0,-9.900303483E-1,8.142177582E0,4.883152962E0
3.897817254E0,-9.948160052E-1,8.161319733E0,4.893322468E0
3.900131942E0,-9.565308690E-1,8.170890808E0,4.922036171E0
3.902446681E0,-9.469595551E-1,8.185846329E0,4.926821709E0
3.904761369E0,-9.373882413E-1,8.224131584E0,4.941178799E0
3.907076108E0,-9.278169870E-1,8.233702660E0,4.950749874E0
3.909390848E0,-9.284151793E-1,8.277970314E0,4.994419098E0
3.911705535E0,-9.523434043E-1,8.267800331E0,5.023132801E0
3.914020275E0,-9.523434043E-1,8.321041107E0,5.037489891E0
3.916334963E0,-9.816554785E-1,8.344968796E0,5.062016487E0
3.918649702E0,-9.385846853E-1,8.398209572E0,5.076373100E0
3.920964442E0,-8.955138922E-1,8.407780647E0,5.124229908E0
3.923279129E0,-8.189435601E-1,8.441878319E0,5.149354458E0
3.925593869E0,-7.806583643E-1,8.471190453E0,5.178068161E0
3.927908556E0,-6.987041831E-1,8.514859200E0,5.235496044E0
3.930223296E0,-6.364908218E-1,8.538787842E0,5.336592674E0
3.932537983E0,-6.179464459E-1,8.596215248E0,5.509474277E0
3.934852723E0,-5.994020700E-1,8.644071579E0,5.658427238E0
3.937167463E0,-6.143572330E-1,8.667402267E0,5.840281963E0
3.939482150E0,-6.149554253E-1,8.700303078E0,6.008377552E0
3.941796890E0,-6.197410822E-1,8.728418350E0,6.152545452E0
3.944111577E0,-6.203392744E-1,8.742775917E0,6.267998695E0
3.946426317E0,-6.155536175E-1,8.746963501E0,6.369095802E0
3.948741056E0,-5.868397355E-1,8.781061172E0,6.388238430E0
3.951055744E0,-5.485545993E-1,8.781061172E0,6.383452415E0
3.953370483E0,-5.000999570E-1,8.810373306E0,6.369095802E0
3.955685171E0,-4.522434771E-1,8.844470978E0,6.349953175E0
3.957999910E0,-3.750749528E-1,8.869595528E0,6.335596085E0
3.960314598E0,-3.128615618E-1,8.933005333E0,6.288337708E0
3.962629338E0,-2.602194548E-1,8.957531929E0,6.249454498E0
3.964944077E0,-1.926222295E-1,9.016156197E0,6.211169243E0
3.967258765E0,-1.549352705E-1,9.089137077E0,6.159125328E0
3.969573504E0,-9.690931439E-2,9.123832703E0,6.125626087E0
3.971888192E0,-5.862415582E-2,9.172286987E0,6.106483459E0
3.974202931E0,-2.991028316E-2,9.206384659E0,6.101697922E0
3.976517671E0,8.374879137E-3,9.245268822E0,6.087938786E0
3.978832358E0,2.273181453E-2,9.274580956E0,6.078367710E0
3.981147098E0,8.494520187E-2,9.289535522E0,6.092724800E0
3.983461785E0,1.088734269E-1,9.313464165E0,6.135795593E0
3.985776525E0,1.573280841E-1,9.270393372E0,6.154938221E0
3.988091265E0,1.668993831E-1,9.265008926E0,6.193223000E0
3.990405952E0,1.812563092E-1,9.250652313E0,6.221937180E0
3.992720692E0,1.764706671E-1,9.235696793E0,6.265007973E0
3.995035379E0,1.567298770E-1,9.220742226E0,6.346961975E0
3.997350119E0,1.280160099E-1,9.205786705E0,6.413960934E0
3.999664806E0,1.328016520E-1,9.209974289E0,6.538387775E0
4.001979546E0,1.471585929E-1,9.190832138E0,6.591030121E0
4.004294285E0,1.710868180E-1,9.185447693E0,6.725626469E0
4.006608973E0,1.800599098E-1,9.169894218E0,6.859624386E0
4.008923713E0,1.800599098E-1,9.169894218E0,6.955337048E0
4.011238400E0,1.800599098E-1,9.188439369E0,7.046862602E0
4.013553140E0,1.507478207E-1,9.183054924E0,7.123433113E0
4.015867879E0,1.076770201E-1,9.202198029E0,7.147361279E0
4.018182567E0,6.879365444E-2,9.250054359E0,7.162316322E0
4.020497306E0,4.486542568E-2,9.245268822E0,7.162316322E0
4.022811994E0,-1.316052489E-2,9.321838379E0,7.138388157E0
4.025126733E0,-8.075776696E-2,9.385248184E0,7.081558704E0
4.027441473E0,-1.196411327E-1,9.458230019E0,7.009773731E0
4.029756160E0,-1.968096644E-1,9.530612946E0,6.957729816E0
4.032070900E0,-2.739782035E-1,9.631709099E0,6.847660065E0
4.034385588E0,-3.469592929E-1,9.747760773E0,6.752545357E0
4.036700327E0,-4.193421602E-1,9.820742607E0,6.623332977E0
4.039015015E0,-4.917250574E-1,9.927223206E0,6.513861656E0
4.041329754E0,-5.497509837E-1,9.990034103E0,6.403791428E0
4.043644494E0,-5.934200287E-1,1.007737255E1,6.289534092E0
4.045959181E0,-6.269195080E-1,1.011147022E1,6.188437462E0
4.048273921E0,-6.412764788E-1,1.012164021E1,6.097510338E0
4.050588608E0,-6.221339107E-1,1.015095139E1,6.016154289E0
4.052903348E0,-5.982056856E-1,1.015633583E1,5.972485542E0
4.055218088E0,-5.449653864E-1,1.014197922E1,5.962913990E0
4.057532775E0,-5.252245665E-1,1.012762165E1,5.972485542E0
4.059847515E0,-4.630111754E-1,1.010369396E1,6.015556335E0
4.062162202E0,-4.097708762E-1,1.011326504E1,6.072983742E0
4.064476942E0,-3.906283081E-1,1.006959629E1,6.163911343E0
4.066791681E0,-3.810569942E-1,1.006421185E1,6.269793510E0
4.069106369E0,-3.762713671E-1,1.003968525E1,6.385247231E0
4.071421108E0,-3.906283081E-1,1.001037312E1,6.476174355E0
4.073735796E0,-3.960121572E-1,9.995418549E0,6.547959328E0
4.076050535E0,-4.295116663E-1,9.960722923E0,6.614958286E0
4.078365275E0,-4.725824594E-1,9.892526627E0,6.643074036E0
4.080679963E0,-5.006981492E-1,9.834501266E0,6.647859573E0
4.082994702E0,-5.443671346E-1,9.781260490E0,6.647261143E0
4.085309390E0,-5.587241054E-1,9.708279610E0,6.647261143E0
4.087624129E0,-5.868397355E-1,9.640682220E0,6.627520561E0
4.089938869E0,-5.964110494E-1,9.568299294E0,6.612565517E0
4.092253556E0,-6.299105883E-1,9.524630547E0,6.583851337E0
4.094568296E0,-6.628118753E-1,9.452247620E0,6.578467846E0
4.096882983E0,-7.058826685E-1,9.359525681E0,6.559325218E0
4.099197723E0,-7.489534616E-1,9.315856934E0,6.549155712E0
4.101512410E0,-7.962117195E-1,9.228518486E0,6.543771744E0
4.103827150E0,-8.679963946E-1,9.141180992E0,6.519843578E0
4.106141890E0,-9.206385016E-1,9.058628082E0,6.471388817E0
4.108456577E0,-9.732806087E-1,8.990432739E0,6.461219311E0
4.110771317E0,-1.020538807E0,8.913264275E0,6.418148518E0
4.113086004E0,-1.087537885E0,8.821140289E0,6.369693756E0
4.115400744E0,-1.135394335E0,8.777471542E0,6.297310829E0
4.117715483E0,-1.158724308E0,8.695517540E0,6.253043652E0
4.120030171E0,-1.187438250E0,8.662017822E0,6.171687603E0
4.122344910E0,-1.205982566E0,8.613563538E0,6.113661766E0
4.124659598E0,-1.234696507E0,8.580063820E0,6.070590973E0
4.126974338E0,-1.239482164E0,8.580063820E0,6.027520180E0
4.129289077E0,-1.258624673E0,8.551349640E0,5.988636971E0
4.131603765E0,-1.296909928E0,8.545966148E0,5.988636971E0
4.133918504E0,-1.339980721E0,8.531609535E0,6.002993584E0
4.136233192E0,-1.383649707E0,8.521439552E0,5.983851433E0
4.138547931E0,-1.397408366E0,8.502297401E0,5.964708805E0
4.140862619E0,-1.431506157E0,8.482556343E0,5.969494343E0
4.143177358E0,-1.450648785E0,8.487341881E0,5.974279881E0
4.145492098E0,-1.479362607E0,8.467600822E0,5.983851433E0
4.147806785E0,-1.488933921E0,8.448458672E0,5.998208046E0
4.150121525E0,-1.503290772E0,8.423932076E0,6.017350674E0
4.152436213E0,-1.498505235E0,8.389834404E0,6.045466423E0
4.154750952E0,-1.522433400E0,8.350951195E0,6.102894306E0
4.157065692E0,-1.493121386E0,8.312067986E0,6.169893265E0
4.159380379E0,-1.473978758E0,8.277970314E0,6.260820389E0
4.161695119E0,-1.459621787E0,8.228319168E0,6.371488571E0
4.164009858E0,-1.435693622E0,8.189435959E0,6.476772785E0
4.166324546E0,-1.396810174E0,8.131409645E0,6.538986206E0
4.168639285E0,-1.343569875E0,8.082955360E0,6.610172749E0
4.170953973E0,-1.275972724E0,8.001000404E0,6.648457527E0
4.173268713E0,-1.217946768E0,7.923832417E0,6.686144829E0
4.175583400E0,-1.174277663E0,7.861020565E0,6.690930367E0
4.177898140E0,-1.097109199E0,7.817949772E0,6.704689026E0
4.180212879E0,-1.024726272E0,7.780262947E0,6.680760860E0
4.182527567E0,-9.332008362E-1,7.751548767E0,6.670591354E0
4.184842306E0,-8.991031051E-1,7.718049526E0,6.622735023E0
4.187156994E0,-8.464609981E-1,7.689933777E0,6.594020844E0
4.189471733E0,-8.315058947E-1,7.689933777E0,6.540780544E0
4.191786421E0,-8.458628058E-1,7.675576687E0,6.473781586E0
4.194101160E0,-8.793623447E-1,7.656434059E0,6.392425537E0
4.196415900E0,-9.272187948E-1,7.676175117E0,6.334998131E0
4.198730588E0,-9.511470199E-1,7.661818027E0,6.257231236E0
4.201045327E0,-9.942178130E-1,7.642675400E0,6.175875187E0
4.203360067E0,-9.990034699E-1,7.633104324E0,6.080162525E0
4.205674754E0,-1.022931695E0,7.609176159E0,5.979065418E0
4.207989494E0,-1.027119160E0,7.595417500E0,5.888138294E0
4.210304181E0,-1.051047325E0,7.547560692E0,5.763113499E0
4.212618921E0,-1.045663476E0,7.504489899E0,5.642873764E0
4.214933660E0,-1.054636598E0,7.475776196E0,5.542375565E0
4.217248348E0,-1.078564763E0,7.437490940E0,5.446064472E0
4.219563088E0,-1.073180914E0,7.408777237E0,5.359922886E0
4.221877775E0,-1.068395257E0,7.385447025E0,5.282754421E0
4.224192515E0,-1.073180914E0,7.371089935E0,5.263611794E0
4.226507202E0,-1.082154036E0,7.332206726E0,5.244469166E0
4.228821942E0,-1.077368379E0,7.313064098E0,5.234299660E0
4.231136681E0,-1.106082320E0,7.293323517E0,5.234299660E0
4.233451369E0,-1.134796143E0,7.268796921E0,5.234299660E0
4.235766108E0,-1.164108157E0,7.264011383E0,5.267798901E0
4.238080796E0,-1.192822099E0,7.215556622E0,5.277370453E0
4.240395535E0,-1.221535921E0,7.210172653E0,5.286941528E0
4.242710275E0,-1.220937729E0,7.176673412E0,5.291727066E0
4.245024963E0,-1.240080357E0,7.171289444E0,5.267798901E0
4.247339702E0,-1.244866014E0,7.161718369E0,5.276772022E0
4.249654390E0,-1.211366415E0,7.147361279E0,5.257629395E0
4.251969129E0,-1.201795220E0,7.143173695E0,5.238486767E0
4.254283869E0,-1.168295622E0,7.143173695E0,5.224130154E0
4.256598556E0,-1.167697430E0,7.153343201E0,5.181059361E0
4.258913296E0,-1.168295622E0,7.172485828E0,5.161916733E0
4.261227983E0,-1.187438250E0,7.186842918E0,5.127819061E0
4.263542723E0,-1.216152072E0,7.206583500E0,5.099104881E0
4.265857410E0,-1.240080357E0,7.230511665E0,5.065605640E0
4.268172150E0,-1.269392371E0,7.244868755E0,5.051846981E0
4.270486890E0,-1.274178028E0,7.244868755E0,5.012963295E0
4.272801577E0,-1.269392371E0,7.264609337E0,5.003990173E0
4.275116317E0,-1.245464206E0,7.274180889E0,4.980062008E0
4.277431056E0,-1.225723386E0,7.265207767E0,4.950749874E0
4.279745744E0,-1.177866936E0,7.269993305E0,4.926821709E0
4.282060483E0,-1.148554921E0,7.261020184E0,4.926821709E0
4.284375171E0,-1.081555843E0,7.256234646E0,4.926821709E0
4.286689910E0,-1.057627559E0,7.251449108E0,4.922036171E0
4.289004650E0,-1.009172916E0,7.223333359E0,4.907679081E0
4.291319338E0,-9.661021233E-1,7.218547821E0,4.902893543E0
4.293634077E0,-9.367900491E-1,7.238288403E0,4.874179840E0
4.295948765E0,-9.080761671E-1,7.214360237E0,4.854438782E0
4.298263504E0,-8.889335990E-1,7.214360237E0,4.840082169E0
4.300578192E0,-8.787640929E-1,7.219744205E0,4.787439823E0
4.302892931E0,-8.979067206E-1,7.210172653E0,4.753940582E0
4.305207671E0,-9.074779749E-1,7.190432072E0,4.730011940E0
4.307522358E0,-9.026923180E-1,7.195816040E0,4.691727161E0
4.309837098E0,-9.266205430E-1,7.176673412E0,4.619344234E0
4.312151785E0,-9.505487680E-1,7.191030025E0,4.566701889E0
4.314466525E0,-9.888339639E-1,7.186244488E0,4.514060020E0
4.316781265E0,-9.984052777E-1,7.196413994E0,4.423132420E0
4.319095952E0,-1.031904817E0,7.186842918E0,4.341776848E0
4.321410692E0,-1.051047325E0,7.172485828E0,4.269393921E0
4.323725379E0,-1.098903775E0,7.187440872E0,4.211966038E0
4.326040119E0,-1.118046403E0,7.177869797E0,4.149752617E0
4.328354858E0,-1.161715388E0,7.197012424E0,4.116253376E0
4.330669546E0,-1.200000525E0,7.172485828E0,4.087539196E0
4.332984285E0,-1.219143152E0,7.172485828E0,4.058825493E0
4.335298973E0,-1.199402332E0,7.168298244E0,4.034897327E0
4.337613713E0,-1.175474167E0,7.134200573E0,4.009772778E0
4.339928452E0,-1.118046403E0,7.149155617E0,4.004986763E0
4.342243140E0,-1.064806104E0,7.144968510E0,3.990629911E0
4.344557879E0,-1.012163997E0,7.139584541E0,4.019343853E0
4.346872567E0,-9.397810698E-1,7.150352478E0,4.029513359E0
4.349187306E0,-8.679963946E-1,7.170093060E0,4.048655987E0
4.351502046E0,-7.908278704E-1,7.194619656E0,4.111467361E0
4.353816733E0,-7.142575383E-1,7.219145775E0,4.154538155E0
4.356131473E0,-6.376872063E-1,7.243073940E0,4.226323128E0
4.358446160E0,-5.850451589E-1,7.281957626E0,4.293920040E0
4.360760900E0,-5.419743061E-1,7.315456867E0,4.351347923E0
4.363075640E0,-4.839483798E-1,7.344769001E0,4.423730850E0
4.365390327E0,-4.462614357E-1,7.407580853E0,4.471587181E0
4.367705067E0,-4.271188378E-1,7.431509018E0,4.553541660E0
4.370019754E0,-4.414757788E-1,7.450651646E0,4.606183529E0
4.372334494E0,-4.271188378E-1,7.465008259E0,4.644468784E0
4.374649233E0,-4.516452849E-1,7.484150887E0,4.678566456E0
4.376963921E0,-4.564309120E-1,7.478767395E0,4.673780918E0
4.379278660E0,-4.660021961E-1,7.483552933E0,4.673780918E0
4.381593348E0,-4.947160780E-1,7.488338470E0,4.678566456E0
4.383908088E0,-4.947160780E-1,7.502695560E0,4.688137531E0
4.386222827E0,-5.138586760E-1,7.488338470E0,4.683351994E0
4.388537515E0,-5.240281820E-1,7.512266636E0,4.707280159E0
4.390852254E0,-5.341976285E-1,7.517052174E0,4.712066174E0
4.393166942E0,-5.533402562E-1,7.526623726E0,4.735994339E0
4.395481681E0,-5.587241054E-1,7.535596848E0,4.794020176E0
4.397796421E0,-5.682953596E-1,7.549953461E0,4.841876507E0
4.400111108E0,-5.970092416E-1,7.564310551E0,4.865804672E0
4.402425848E0,-6.017948985E-1,7.564310551E0,4.894518852E0
4.404740535E0,-6.113662124E-1,7.558926582E0,4.904089928E0
4.407055275E0,-6.161518097E-1,7.539783955E0,4.908875465E0
4.409370015E0,-6.215356588E-1,7.573882103E0,4.904089928E0
4.411684702E0,-5.730810165E-1,7.549953461E0,4.880161762E0
4.413999442E0,-5.246263742E-1,7.564908981E0,4.865804672E0
4.416314129E0,-4.761717021E-1,7.569694519E0,4.865804672E0
4.418628869E0,-4.331009090E-1,7.589435101E0,4.846662045E0
4.420943556E0,-3.852444589E-1,7.604390144E0,4.856233597E0
4.423258296E0,-3.517449200E-1,7.643273830E0,4.875974178E0
4.425573035E0,-3.278166950E-1,7.643273830E0,4.856233597E0
4.427887723E0,-3.038884699E-1,7.691728592E0,4.861617565E0
4.430202463E0,-2.943171859E-1,7.721040249E0,4.866403103E0
4.432517150E0,-2.751746178E-1,7.754539967E0,4.866403103E0
4.434831890E0,-2.608176768E-1,7.754539967E0,4.875974178E0
4.437146629E0,-2.225325108E-1,7.779066563E0,4.886143684E0
4.439461317E0,-2.033899277E-1,7.798807144E0,4.910071850E0
4.441776056E0,-1.698904037E-1,7.822735310E0,4.996213913E0
4.444090744E0,-1.513460279E-1,7.831708431E0,5.102096081E0
4.446405483E0,-1.513460279E-1,7.845467091E0,5.251049519E0
4.448720223E0,-1.854437590E-1,7.859225750E0,5.400002480E0
4.451034910E0,-2.147558331E-1,7.848458290E0,5.562714577E0
4.453349650E0,-2.434697002E-1,7.857431412E0,5.687739372E0
4.455664390E0,-3.254238665E-1,7.851449490E0,5.821737289E0
4.457979077E0,-3.547359705E-1,7.836493969E0,5.907878876E0
4.460293817E0,-4.169493318E-1,7.801798344E0,5.994020939E0
4.462608504E0,-4.797609448E-1,7.771887779E0,6.051448345E0
4.464923244E0,-5.377869010E-1,7.771289825E0,6.084948063E0
4.467237931E0,-6.005984545E-1,7.746763229E0,6.118447304E0
4.469552671E0,-6.340979934E-1,7.736593723E0,6.171089649E0
4.471867410E0,-6.723831892E-1,7.721638680E0,6.166304111E0
4.474182098E0,-7.154539824E-1,7.716853142E0,6.161518097E0
4.476496838E0,-7.782655358E-1,7.721040249E0,6.156732559E0
4.478811577E0,-8.213363886E-1,7.716254711E0,6.113661766E0
4.481126265E0,-8.937192559E-1,7.725826263E0,6.089733601E0
4.483441004E0,-9.900303483E-1,7.759325504E0,6.056832314E0
4.485755692E0,-1.057029366E0,7.788039684E0,5.994618893E0
4.488070431E0,-1.119840980E0,7.816753387E0,5.932405472E0
4.490385119E0,-1.201795220E0,7.860422611E0,5.846263885E0
4.492699858E0,-1.259821177E0,7.904091358E0,5.779264927E0
4.495014598E0,-1.312463164E0,7.928019524E0,5.740979671E0
4.497329285E0,-1.350748420E0,7.956733704E0,5.684150219E0
4.499644025E0,-1.389631748E0,7.995616913E0,5.645864964E0
4.501958765E0,-1.442872047E0,8.029116631E0,5.617151260E0
4.504273452E0,-1.471585870E0,8.053044319E0,5.621936798E0
4.506588192E0,-1.476371527E0,8.082356453E0,5.627320766E0
4.508902879E0,-1.472184181E0,8.101499557E0,5.675177097E0
4.511217619E0,-1.481755376E0,8.105687141E0,5.694319725E0
4.513532358E0,-1.472184181E0,8.134998322E0,5.737390518E0
4.515847046E0,-1.453041553E0,8.130212784E0,5.761318684E0
4.518161785E0,-1.438684583E0,8.149355888E0,5.804987907E0
4.520476473E0,-1.400399446E0,8.168498039E0,5.843272686E0
4.522791213E0,-1.376471281E0,8.163712502E0,5.824130535E0
4.525105952E0,-1.304686546E0,8.178668022E0,5.871986866E0
4.527420640E0,-1.232303619E0,8.193622589E0,5.915057659E0
4.529735379E0,-1.141376376E0,8.203792572E0,5.919843197E0
4.532050067E0,-1.068993568E0,8.247461319E0,5.949155331E0
4.534364806E0,-1.012163997E0,8.311469078E0,5.973083496E0
4.536679546E0,-9.499505758E-1,8.359924316E0,6.007181168E0
4.538994233E0,-9.116654396E-1,8.403593063E0,6.016752720E0
4.541308973E0,-8.925228715E-1,8.466404915E0,6.011966705E0
4.543623660E0,-8.829515576E-1,8.505288124E0,5.988636971E0
4.545938400E0,-8.733802438E-1,8.548956871E0,5.935994625E0
4.548253140E0,-8.787640929E-1,8.593224525E0,5.868995667E0
4.550567827E0,-8.733802438E-1,8.612964630E0,5.773283005E0
4.552882567E0,-8.638089895E-1,8.666205406E0,5.672784328E0
4.555197254E0,-8.350951076E-1,8.700901031E0,5.548357487E0
4.557511994E0,-8.303094506E-1,8.745168686E0,5.438287735E0
4.559826733E0,-7.920243144E-1,8.779864311E0,5.356931686E0
4.562141421E0,-7.776673436E-1,8.818747520E0,5.285147190E0
4.564456160E0,-7.680960894E-1,8.867202759E0,5.246861935E0
4.566770848E0,-7.495517135E-1,8.915657043E0,5.295316696E0
4.569085588E0,-7.639086246E-1,8.958727837E0,5.348556995E0
4.571400327E0,-7.453642488E-1,9.001798630E0,5.439484119E0
4.573715015E0,-7.453642488E-1,9.025727272E0,5.564508915E0
4.576029754E0,-7.651050687E-1,9.043673515E0,5.727221012E0
4.578344442E0,-7.555337548E-1,9.048459053E0,5.852245808E0
4.580659181E0,-7.800601721E-1,9.042476654E0,5.995815277E0
4.582973921E0,-7.609176040E-1,9.017950058E0,6.125027657E0
4.585288608E0,-7.130611539E-1,8.993423462E0,6.250052929E0
4.587603348E0,-6.843472719E-1,8.988039970E0,6.360720634E0
4.589918035E0,-6.604190469E-1,8.973683357E0,6.442076683E0
4.592232775E0,-6.071787477E-1,8.925228119E0,6.528218269E0
4.594547463E0,-5.353940725E-1,8.949156761E0,6.609574318E0
4.596862202E0,-4.677968323E-1,8.968897820E0,6.690930367E0
4.599176942E0,-3.768695593E-1,9.002396584E0,6.777669907E0
4.601491629E0,-3.146561682E-1,9.046066284E0,6.859025955E0
4.603806369E0,-2.476571500E-1,9.104091644E0,6.955337048E0
4.606121108E0,-1.806581169E-1,9.171689034E0,7.003791809E0
4.608435796E0,-1.328016520E-1,9.249456406E0,7.037889481E0
4.610750535E0,-1.286142170E-1,9.331410408E0,7.057032108E0
4.613065223E0,-1.148554832E-1,9.433703423E0,7.024130821E0
4.615379963E0,-8.614161611E-2,9.555138588E0,6.943373203E0
4.617694702E0,-8.195417374E-2,9.652647018E0,6.804589272E0
4.620009390E0,-1.010967568E-1,9.769296646E0,6.632904530E0
4.622324129E0,-7.298108935E-2,9.876974106E0,6.465406895E0
4.624638817E0,-5.383851007E-2,9.994221687E0,6.259026051E0
4.626953556E0,-2.033899166E-2,1.010130119E1,6.039484501E0
4.629268296E0,-1.076770201E-2,1.019462109E1,5.819344521E0
4.631582983E0,-1.196411322E-3,1.026819992E1,5.642275810E0
4.633897723E0,8.374879137E-3,1.034596729E1,5.479563713E0
4.636212410E0,2.273181453E-2,1.040997505E1,5.340780258E0
4.638527150E0,5.623133108E-2,1.044407272E1,5.245067120E0
4.640841890E0,9.511470050E-2,1.045962620E1,5.168497086E0
4.643156577E0,1.716850251E-1,1.046500969E1,5.100899696E0
4.645471317E0,2.679961324E-1,1.047517967E1,5.105685234E0
4.647786004E0,3.643072546E-1,1.048056316E1,5.115256786E0
4.650100744E0,4.845465720E-1,1.044227791E1,5.172684193E0
4.652415483E0,5.712863803E-1,1.041356373E1,5.312066078E0
4.654730171E0,6.053841114E-1,1.039801121E1,5.474778175E0
4.657044910E0,6.382854581E-1,1.036869907E1,5.694917679E0
4.659359598E0,6.334998012E-1,1.032861900E1,5.949155331E0
4.661674338E0,6.041877270E-1,1.030768204E1,6.202794552E0
4.663989077E0,5.796613097E-1,1.027238750E1,6.448058605E0
4.666303765E0,5.790630579E-1,1.020359421E1,6.677769661E0
4.668618504E0,6.041877270E-1,1.013539886E1,6.902695179E0
4.670933192E0,6.424728632E-1,1.005224800E1,7.098906517E0
4.673247931E0,6.957131624E-1,9.954740524E0,7.280162811E0
4.675562671E0,7.872386575E-1,9.843474388E0,7.453044415E0
4.677877358E0,8.596215248E-1,9.736993790E0,7.557730198E0
4.680192098E0,8.985049129E-1,9.615557671E0,7.686942577E0
4.682506785E0,9.373882413E-1,9.524032593E0,7.753343582E0
4.684821525E0,9.762716293E-1,9.427123070E0,7.786244869E0
4.687136265E0,9.912267923E-1,9.315258980E0,7.809575081E0
4.689450952E0,1.001396298E0,9.233304024E0,7.804789066E0
4.691765692E0,9.972088337E-1,9.156135559E0,7.756334782E0
4.694080431E0,9.780662656E-1,9.093324661E0,7.679165840E0
4.696395119E0,9.451649189E-1,9.016754150E0,7.573283672E0
4.698709858E0,8.542376757E-1,8.987442017E0,7.453642368E0
4.701024546E0,7.824530005E-1,8.949156761E0,7.304090977E0
4.703339285E0,6.628118753E-1,8.939585686E0,7.155138016E0
4.705654025E0,5.467599630E-1,8.919844627E0,7.001997471E0
4.707968713E0,4.223332107E-1,8.900702477E0,6.887141705E0
4.710283452E0,3.020938635E-1,8.900103569E0,6.790830612E0
4.712598140E0,1.770688742E-1,8.880961418E0,6.675975323E0
4.714912879E0,3.349951655E-2,8.860622406E0,6.608976364E0
4.717227619E0,-8.673982322E-2,8.870193481E0,6.532405853E0
4.719542306E0,-2.069791555E-1,8.855237961E0,6.470192432E0
4.721857046E0,-3.080759048E-1,8.845068932E0,6.416952133E0
4.724171733E0,-4.181457460E-1,8.830113411E0,6.359524250E0
4.726486473E0,-5.389832854E-1,8.805587769E0,6.306882381E0
4.728801213E0,-6.490531564E-1,8.781061172E0,6.287739754E0
4.731115900E0,-7.501499057E-1,8.736793518E0,6.257829189E0
4.733430640E0,-8.512466550E-1,8.755337715E0,6.268597126E0
4.735745327E0,-9.230313301E-1,8.691927910E0,6.282355785E0
4.738060067E0,-1.004387259E0,8.653044701E0,6.291927338E0
4.740374806E0,-1.042672515E0,8.613563538E0,6.334998131E0
4.742689494E0,-1.057029366E0,8.565108299E0,6.378068924E0
4.745004233E0,-1.066600680E0,8.511270523E0,6.473183632E0
4.747318921E0,-1.061815023E0,8.472386360E0,6.549753666E0
4.749633660E0,-1.052243710E0,8.432905197E0,6.683752060E0
4.751948400E0,-1.037886858E0,8.379665375E0,6.784250259E0
4.754263088E0,-1.037886858E0,8.349754333E0,6.913462639E0
4.756577827E0,-1.061815023E0,8.271389961E0,7.066603661E0
4.758892567E0,-1.071386337E0,8.231907845E0,7.186244488E0
4.761207254E0,-1.138385415E0,8.158329010E0,7.286743164E0
4.763521994E0,-1.157527924E0,8.075776100E0,7.387241840E0
4.765836681E0,-1.186241865E0,8.016553879E0,7.487740040E0
4.768151421E0,-1.195214868E0,7.929215908E0,7.545167923E0
4.770466108E0,-1.166501045E0,7.880761147E0,7.616952896E0
4.772780848E0,-1.127617717E0,7.789236069E0,7.664210796E0
4.775095588E0,-1.064806104E0,7.721638680E0,7.692326546E0
4.777410275E0,-9.876375198E-1,7.649854183E0,7.701898098E0
4.779725015E0,-9.152546525E-1,7.591827869E0,7.701299667E0
4.782039754E0,-8.566305041E-1,7.514659405E0,7.719843864E0
4.784354442E0,-7.992027402E-1,7.457231998E0,7.738986492E0
4.786669181E0,-7.698906660E-1,7.389634609E0,7.782057285E0
4.788983869E0,-7.357929349E-1,7.336394310E0,7.824530125E0
4.791298608E0,-7.405785918E-1,7.287939548E0,7.843672752E0
4.793613348E0,-7.351947427E-1,7.239484787E0,7.843074322E0
4.795928035E0,-7.208378315E-1,7.196413994E0,7.814360619E0
4.798242775E0,-7.058826685E-1,7.167700291E0,7.776075363E0
4.800557463E0,-7.010970116E-1,7.148557663E0,7.674978733E0
4.802872202E0,-6.765705943E-1,7.119843960E0,7.554739475E0
4.805186942E0,-6.616154313E-1,7.095915318E0,7.444669247E0
4.807501629E0,-6.329016089E-1,7.082755089E0,7.295117855E0
4.809816369E0,-6.323033571E-1,7.073781967E0,7.146762848E0
4.812131056E0,-6.083751321E-1,7.094120979E0,6.993024349E0
4.814445796E0,-6.077769399E-1,7.109076023E0,6.873383045E0
4.816760535E0,-6.029912829E-1,7.119245529E0,6.720242500E0
4.819075223E0,-6.412764788E-1,7.154539585E0,6.567101955E0
4.821389963E0,-6.412764788E-1,7.174280643E0,6.408577442E0
4.823704650E0,-6.652047038E-1,7.208976269E0,6.250052929E0
