"Time (s)","Gyroscope x (rad/s)","Gyroscope y (rad/s)","Gyroscope z (rad/s)"
3.171173300E-2,-1.072953224E0,-5.887040496E-1,-3.356605768E-1
3.402642100E-2,-1.022711039E0,-5.737382770E-1,-3.562766612E-1
3.634116000E-2,-9.665130973E-1,-5.436540842E-1,-3.793361485E-1
3.865584800E-2,-9.055810571E-1,-4.999784827E-1,-4.034646153E-1
4.097058800E-2,-8.399149776E-1,-4.424061179E-1,-4.300364852E-1
4.328527500E-2,-7.718055248E-1,-3.799470067E-1,-4.553866386E-1
4.560001500E-2,-7.085828185E-1,-3.101576865E-1,-4.805840850E-1
4.791470200E-2,-6.452074051E-1,-2.389939874E-1,-5.034908652E-1
5.022944200E-2,-5.867187977E-1,-1.627907902E-1,-5.274665952E-1
5.254412900E-2,-5.343386531E-1,-8.414421231E-2,-5.515950918E-1
5.485886900E-2,-4.889832437E-1,-3.054236295E-3,-5.743491650E-1
5.717355600E-2,-4.509579837E-1,8.307522535E-2,-6.021426916E-1
5.948829600E-2,-4.236225784E-1,1.730224788E-1,-6.299362183E-1
6.180298300E-2,-4.120164812E-1,2.706053257E-1,-6.589514613E-1
6.411772300E-2,-4.123218954E-1,3.753656447E-1,-6.940752268E-1
6.643241000E-2,-4.295783341E-1,4.865398407E-1,-7.328640223E-1
6.874715000E-2,-4.634803534E-1,6.102364063E-1,-7.765395641E-1
7.106183800E-2,-5.154023767E-1,7.414158583E-1,-8.228112459E-1
7.337657700E-2,-5.830537081E-1,8.762603998E-1,-8.764131069E-1
7.569126500E-2,-6.638382673E-1,1.014922738E0,-9.275715351E-1
7.800600400E-2,-7.589777112E-1,1.152363300E0,-9.836167693E-1
8.032069200E-2,-8.660287261E-1,1.283542752E0,-1.032484531E0
8.263543100E-2,-9.779664874E-1,1.410904408E0,-1.081199646E0
8.495011900E-2,-1.098150611E0,1.532157660E0,-1.125180602E0
8.726485800E-2,-1.223221660E0,1.646996975E0,-1.168092728E0
8.957954600E-2,-1.354248405E0,1.754505992E0,-1.202300072E0
9.189428500E-2,-1.486344099E0,1.851936221E0,-1.232842445E0
9.420897300E-2,-1.619661450E0,1.935622215E0,-1.259872437E0
9.652371300E-2,-1.750535488E0,2.005564213E0,-1.282015681E0
9.883840000E-2,-1.875301123E0,2.057944298E0,-1.299272060E0
1.011531400E-1,-1.994110823E0,2.095511436E0,-1.314237833E0
1.034678270E-1,-2.106812239E0,2.113073349E0,-1.323095202E0
1.057825670E-1,-2.213405132E0,2.111851692E0,-1.325843930E0
1.080972540E-1,-2.311751366E0,2.091846466E0,-1.324927688E0
1.104119940E-1,-2.402615070E0,2.049545288E0,-1.316833973E0
1.127266810E-1,-2.481566906E0,1.990751266E0,-1.296370625E0
1.150414210E-1,-2.551967144E0,1.904621720E0,-1.266286373E0
1.173561080E-1,-2.612746477E0,1.781077862E0,-1.238798261E0
1.196708480E-1,-2.654131413E0,1.618897915E0,-1.211310148E0
1.219855350E-1,-2.676427364E0,1.420525312E0,-1.183974743E0
1.243002750E-1,-2.678107023E0,1.204896212E0,-1.160457134E0
1.266149630E-1,-2.652298689E0,9.852966070E-1,-1.130525589E0
1.289297020E-1,-2.607401609E0,7.707365155E-1,-1.099525094E0
1.312443900E-1,-2.542040825E0,5.723638535E-1,-1.064554095E0
1.335591290E-1,-2.457591295E0,3.900259733E-1,-1.020878434E0
1.358738170E-1,-2.356496096E0,2.189887464E-1,-9.759812355E-1
1.381885560E-1,-2.245627165E0,6.536065787E-2,-9.284878373E-1
1.405032440E-1,-2.128955364E0,-7.207997888E-2,-8.822161555E-1
1.428179830E-1,-2.002662659E0,-2.008160353E-1,-8.333483934E-1
1.451327230E-1,-1.878966212E0,-3.156553209E-1,-7.904363275E-1
1.474344940E-1,-1.758629203E0,-4.231644273E-1,-7.476770282E-1
1.497620980E-1,-1.633710980E0,-5.256340504E-1,-7.110261917E-1
1.520768380E-1,-1.514748454E0,-6.216897964E-1,-6.803311110E-1
1.543915770E-1,-1.400672793E0,-7.053758502E-1,-6.558972597E-1
1.567062650E-1,-1.297286868E0,-7.791357040E-1,-6.363501549E-1
1.590209520E-1,-1.206117868E0,-8.402203918E-1,-6.252021790E-1
1.613356920E-1,-1.126860499E0,-8.877137899E-1,-6.203153729E-1
1.636503790E-1,-1.068066478E0,-9.162709117E-1,-6.252021790E-1
1.659651190E-1,-1.023779988E0,-9.138274789E-1,-6.374191046E-1
1.682669420E-1,-9.998042583E-1,-8.875610828E-1,-6.519267559E-1
1.705945460E-1,-9.988879561E-1,-8.374716043E-1,-6.774296165E-1
1.729092850E-1,-1.012326598E0,-7.638645172E-1,-7.065975666E-1
1.752110560E-1,-1.047297597E0,-6.739172339E-1,-7.382088900E-1
1.775386600E-1,-1.101662993E0,-5.639647245E-1,-7.759287357E-1
1.798534000E-1,-1.175117373E0,-4.341596961E-1,-8.160919547E-1
1.821552230E-1,-1.264301062E0,-2.843494117E-1,-8.597674966E-1
1.844828270E-1,-1.366770744E0,-1.256818175E-1,-9.060391784E-1
1.867975670E-1,-1.488329291E0,3.787253052E-2,-9.510892034E-1
1.890993380E-1,-1.613400340E0,2.038702667E-1,-9.936957955E-1
1.914269940E-1,-1.744579792E0,3.625378609E-1,-1.037524104E0
1.937416810E-1,-1.879271626E0,4.949389994E-1,-1.081505060E0
1.960435040E-1,-2.008924007E0,5.874823332E-1,-1.118155956E0
1.983711080E-1,-2.128955364E0,6.175665855E-1,-1.149156451E0
2.006858480E-1,-2.234326601E0,5.778614879E-1,-1.175270081E0
2.029876190E-1,-2.319234371E0,4.657710493E-1,-1.190693974E0
2.053152750E-1,-2.389481783E0,2.849602401E-1,-1.197871447E0
2.076299630E-1,-2.440487623E0,5.054761097E-2,-1.198940516E0
2.099317850E-1,-2.482788801E0,-2.174616307E-1,-1.191610336E0
2.122593900E-1,-2.516843319E0,-4.993676245E-1,-1.176949978E0
2.145741290E-1,-2.547233105E0,-7.760814428E-1,-1.156181097E0
2.168759000E-1,-2.578844309E0,-1.034317136E0,-1.127776742E0
2.192035560E-1,-2.613051891E0,-1.270104170E0,-1.097081661E0
2.215182440E-1,-2.650771618E0,-1.482220888E0,-1.058750987E0
2.238329830E-1,-2.684826374E0,-1.669292808E0,-1.014311910E0
2.261476710E-1,-2.723920584E0,-1.836665034E0,-9.648332596E-1
2.284624100E-1,-2.765305519E0,-1.980214119E0,-9.115368128E-1
2.307770980E-1,-2.810508251E0,-2.102689028E0,-8.533536196E-1
2.330918380E-1,-2.859223366E0,-2.201493502E0,-7.925743461E-1
2.354065250E-1,-2.911603451E0,-2.276627779E0,-7.291989326E-1
2.377083480E-1,-2.967648745E0,-2.334200144E0,-6.670452356E-1
2.400359520E-1,-3.024915695E0,-2.385663986E0,-6.000047326E-1
2.423506920E-1,-3.085695028E0,-2.435906172E0,-5.317425132E-1
2.446653790E-1,-3.142961740E0,-2.489813328E0,-4.596625566E-1
2.469801190E-1,-3.195342064E0,-2.555021286E0,-3.840702176E-1
2.492948060E-1,-3.238101244E0,-2.638860226E0,-3.048127890E-1
2.516095460E-1,-3.267574787E0,-2.754004955E0,-2.232646793E-1
2.539242330E-1,-3.284983873E0,-2.892819881E0,-1.368297935E-1
2.562389730E-1,-3.293993950E0,-3.052861929E0,-4.672981426E-2
2.585536600E-1,-3.289717913E0,-3.231534719E0,4.825693369E-2
2.608684000E-1,-3.277042866E0,-3.419064760E0,1.430909634E-1
2.631830880E-1,-3.260702610E0,-3.609038353E0,2.429644912E-1
2.654978270E-1,-3.235963345E0,-3.800386190E0,3.489464819E-1
2.678125150E-1,-3.206490040E0,-3.991581440E0,4.598152637E-1
2.701272540E-1,-3.163730621E0,-4.185372829E0,5.755708218E-1
2.724290770E-1,-3.099438906E0,-4.386799812E0,6.988092661E-1
2.747566810E-1,-2.992082596E0,-4.580743790E0,8.270871639E-1
2.770713690E-1,-2.836774588E0,-4.719863892E0,9.680401683E-1
2.793731920E-1,-2.636264086E0,-4.754224300E0,1.122889996E0
2.817007960E-1,-2.425216436E0,-4.661680698E0,1.284611821E0
2.840155350E-1,-2.204700470E0,-4.475525379E0,1.438087106E0
2.863173580E-1,-1.968913436E0,-4.234545708E0,1.573389769E0
2.886449630E-1,-1.708081603E0,-3.977073908E0,1.683189631E0
2.909596500E-1,-1.430604339E0,-3.718227148E0,1.759850979E0
2.932614730E-1,-1.144727707E0,-3.449454546E0,1.823073626E0
2.955890770E-1,-8.551861644E-1,-3.163119793E0,1.890114188E0
2.979038170E-1,-5.657972693E-1,-2.859375954E0,1.955932975E0
3.002056400E-1,-2.741177082E-1,-2.543109894E0,2.018086672E0
3.025332440E-1,1.756185852E-2,-2.226843596E0,2.066954374E0
3.048479830E-1,3.057290614E-1,-1.886754513E0,2.108339310E0
3.071497540E-1,5.874823332E-1,-1.495659471E0,2.135369301E0
3.094774100E-1,8.583931327E-1,-1.020878434E0,2.155221939E0
3.117920980E-1,1.121821046E0,-4.599680007E-1,2.157054424E0
3.140939210E-1,1.367076159E0,1.472141892E-1,2.145601034E0
3.164215250E-1,1.595685720E0,7.469134927E-1,2.118112803E0
3.187362650E-1,1.805053592E0,1.294385314E0,2.080545664E0
3.210380350E-1,1.985864401E0,1.773136854E0,2.029081821E0
3.233656920E-1,2.146669865E0,2.177365065E0,1.966164589E0
3.256803790E-1,2.290677309E0,2.511803865E0,1.889503241E0
3.279822020E-1,2.422772884E0,2.786379814E0,1.803984642E0
3.303098060E-1,2.544331551E0,3.003688574E0,1.724269152E0
3.326245460E-1,2.661156178E0,3.171213627E0,1.644248128E0
3.349263170E-1,2.769734144E0,3.302392960E0,1.575222373E0
3.372539730E-1,2.880755663E0,3.409902096E0,1.517191887E0
3.395686600E-1,2.989486456E0,3.496031523E0,1.470003963E0
3.418704830E-1,3.076990366E0,3.473888397E0,1.426022887E0
3.441980880E-1,3.121887684E0,3.194883823E0,1.379598498E0
3.465128270E-1,3.119596958E0,2.645426750E0,1.329356313E0
3.488146500E-1,3.061260939E0,1.958834410E0,1.267508030E0
3.511422540E-1,2.962151051E0,1.297286868E0,1.190846682E0
3.534569420E-1,2.837385416E0,7.656970620E-1,1.091278672E0
3.557587650E-1,2.705137014E0,3.698680103E-1,9.739959836E-1
3.580863690E-1,2.566474676E0,8.506047726E-2,8.362498879E-1
3.604011080E-1,2.425369024E0,-1.411057115E-1,6.865923405E-1
3.627029310E-1,2.285179615E0,-3.309265077E-1,5.296045542E-1
3.650305350E-1,2.151098728E0,-4.834856093E-1,3.752129376E-1
3.673452230E-1,2.026333094E0,-5.911474228E-1,2.272351831E-1
3.696470460E-1,1.926459551E0,-6.389462352E-1,9.193251282E-2
3.719746500E-1,1.848271132E0,-6.245913506E-1,-2.962609194E-2
3.742893900E-1,1.787949920E0,-5.493044257E-1,-1.325538605E-1
3.765912130E-1,1.746717691E0,-4.292729199E-1,-2.192941606E-1
3.789188170E-1,1.716175318E0,-2.867927849E-1,-2.886253297E-1
3.812335040E-1,1.692963123E0,-1.406475753E-1,-3.359659910E-1
3.835353270E-1,1.675859451E0,-8.246437646E-3,-3.721587062E-1
3.858629310E-1,1.658755779E0,9.773556143E-2,-3.950654566E-1
3.881776710E-1,1.647760510E0,1.702736765E-1,-4.071297050E-1
3.904923580E-1,1.642720938E0,2.139492482E-1,-4.106420577E-1
3.928070980E-1,1.637986898E0,2.301367074E-1,-4.092676640E-1
3.951217850E-1,1.634321809E0,2.276933193E-1,-4.068242610E-1
3.974365250E-1,1.629587770E0,2.101314515E-1,-4.045335948E-1
3.997512130E-1,1.621341348E0,1.739387512E-1,-3.997995257E-1
4.020659520E-1,1.608208179E0,1.278197914E-1,-3.975088596E-1
4.043806400E-1,1.592784286E0,7.650861889E-2,-3.929274976E-1
4.066953790E-1,1.573848009E0,2.916795574E-2,-3.894151151E-1
4.090199100E-1,1.553537250E0,-1.939439960E-2,-3.872771561E-1
4.113248060E-1,1.528492570E0,-6.184828654E-2,-3.851391971E-1
4.136395460E-1,1.508181930E0,-9.666658193E-2,-3.816268146E-1
4.159542330E-1,1.491536260E0,-1.291942000E-1,-3.768927455E-1
4.182689210E-1,1.478403091E0,-1.553079188E-1,-3.721587062E-1
4.205836600E-1,1.474890709E0,-1.803526580E-1,-3.660502136E-1
4.228984000E-1,1.472599983E0,-2.064663768E-1,-3.588727713E-1
4.252130880E-1,1.471531034E0,-2.327328026E-1,-3.466558158E-1
4.275278270E-1,1.477639556E0,-2.589992285E-1,-3.345915973E-1
4.298425150E-1,1.486038685E0,-2.753393948E-1,-3.187095523E-1
4.321572540E-1,1.504058719E0,-2.816005945E-1,-3.002314270E-1
4.344719420E-1,1.522078633E0,-2.829749882E-1,-2.768665254E-1
4.367866810E-1,1.547276139E0,-2.806843221E-1,-2.449497581E-1
4.391013690E-1,1.577360392E0,-2.822114229E-1,-2.006633282E-1
4.414161080E-1,1.611109614E0,-2.987042964E-1,-1.441599578E-1
4.437307960E-1,1.653410792E0,-3.439069986E-1,-7.437065244E-2
4.460455350E-1,1.705180168E0,-4.103366435E-1,-9.162708884E-4
4.483602230E-1,1.766723037E0,-4.880669713E-1,7.864658535E-2
4.506749630E-1,1.828265905E0,-5.645755529E-1,1.533226669E-1
4.529896500E-1,1.890877724E0,-6.310052276E-1,2.218902707E-1
4.553043900E-1,1.957001925E0,-6.849125028E-1,2.782409191E-1
4.576190770E-1,2.014879704E0,-7.188144922E-1,3.297048211E-1
4.599338170E-1,2.070161343E0,-7.363763452E-1,3.629959822E-1
4.622485040E-1,2.117043972E0,-7.464553714E-1,3.863608837E-1
4.645632440E-1,2.160108566E0,-7.490514517E-1,3.999522328E-1
4.668779310E-1,2.191414595E0,-7.591304183E-1,4.048390090E-1
4.691926710E-1,2.216612101E0,-7.840224504E-1,4.048390090E-1
4.715073580E-1,2.237075329E0,-8.351809382E-1,4.022429287E-1
4.738220980E-1,2.252804756E0,-9.086353183E-1,3.933856487E-1
4.761367850E-1,2.266243219E0,-1.004538298E0,3.857500553E-1
4.784515250E-1,2.279681921E0,-1.119224906E0,3.753656447E-1
4.807662130E-1,2.288386583E0,-1.236354828E0,3.639122546E-1
4.830809520E-1,2.292204380E0,-1.343405843E0,3.463504016E-1
4.853956400E-1,2.293578863E0,-1.431825995E0,3.226800561E-1
4.877103790E-1,2.293731451E0,-1.505280375E0,2.990097404E-1
4.900250670E-1,2.291288137E0,-1.563768983E0,2.706053257E-1
4.923398060E-1,2.288997412E0,-1.609582543E0,2.310529798E-1
4.946544940E-1,2.287775755E0,-1.640583038E0,1.855448484E-1
4.969692330E-1,2.284110546E0,-1.652799964E0,1.462979168E-1
4.992839210E-1,2.281667233E0,-1.653868914E0,1.094943732E-1
5.015986600E-1,2.282736301E0,-1.643790007E0,7.513421029E-2
5.039133480E-1,2.287470341E0,-1.627297044E0,4.581354558E-2
5.062280880E-1,2.292051554E0,-1.612331390E0,1.893626526E-2
5.085428270E-1,2.298007488E0,-1.592173338E0,-6.719320081E-3
5.108575150E-1,2.305032015E0,-1.570946455E0,-2.870982140E-2
5.131722540E-1,2.308544397E0,-1.552162886E0,-4.947862774E-2
5.154869420E-1,2.308391809E0,-1.530783176E0,-7.391251624E-2
5.178016290E-1,2.308391809E0,-1.509556293E0,-9.345962852E-2
5.201163690E-1,2.303504944E0,-1.495659471E0,-1.166718230E-1
5.224311080E-1,2.297396660E0,-1.481762767E0,-1.437018216E-1
5.247457960E-1,2.288997412E0,-1.474127173E0,-1.718007922E-1
5.270605350E-1,2.278002024E0,-1.472752690E0,-1.988307834E-1
5.293752230E-1,2.266090631E0,-1.476417780E0,-2.246390730E-1
5.316899630E-1,2.252804756E0,-1.471225619E0,-2.504473627E-1
5.340046500E-1,2.238296986E0,-1.454885483E0,-2.724378705E-1
5.363193900E-1,2.221498728E0,-1.426175594E0,-2.858765125E-1
5.386340770E-1,2.208060026E0,-1.388761282E0,-2.942756712E-1
5.409488170E-1,2.193705320E0,-1.345085621E0,-2.954973578E-1
5.432635040E-1,2.183931589E0,-1.305227876E0,-2.953446507E-1
5.455782440E-1,2.175532579E0,-1.267813444E0,-2.939702570E-1
5.478929310E-1,2.172936440E0,-1.237882018E0,-2.938175201E-1
5.502076710E-1,2.171714783E0,-1.215433359E0,-2.985515893E-1
5.525223580E-1,2.169271231E0,-1.204285383E0,-3.022166789E-1
5.548370980E-1,2.169271231E0,-1.202911019E0,-3.095468581E-1
5.571517850E-1,2.168049574E0,-1.204132676E0,-3.194731176E-1
5.594665250E-1,2.166827917E0,-1.207797766E0,-3.329117596E-1
5.617812130E-1,2.162093878E0,-1.209019423E0,-3.440597057E-1
5.640959520E-1,2.154763699E0,-1.211462855E0,-3.513898849E-1
5.664106400E-1,2.147586346E0,-1.206423283E0,-3.574983478E-1
5.687253790E-1,2.133231401E0,-1.187792540E0,-3.587200642E-1
5.710400670E-1,2.113837004E0,-1.142895222E0,-3.536805511E-1
5.733548060E-1,2.083752632E0,-1.069288135E0,-3.436015844E-1
5.756694940E-1,2.039160967E0,-9.535325766E-1,-3.235963285E-1
5.779842330E-1,1.970287800E0,-7.666133046E-1,-2.948864996E-1
5.802989730E-1,1.878660798E0,-5.163186193E-1,-2.560977042E-1
5.826136600E-1,1.758171082E0,-2.098260373E-1,-2.047865391E-1
5.849154830E-1,1.617218137E0,1.240019947E-1,-1.437018216E-1
5.872430880E-1,1.461910248E0,4.453076422E-1,-7.773031294E-2
5.895578270E-1,1.305685997E0,7.243121266E-1,-9.620844387E-3
5.918595980E-1,1.156639338E0,9.471186996E-1,5.848862603E-2
5.941872540E-1,1.017366052E0,1.106397152E0,1.273616552E-1
5.965019420E-1,8.913788795E-1,1.208255887E0,1.950129867E-1
5.988037650E-1,7.788302302E-1,1.266439080E0,2.599155009E-1
6.011313690E-1,6.757497787E-1,1.289956689E0,3.258870244E-1
6.034461080E-1,5.861079693E-1,1.292094707E0,3.894151151E-1
6.057607960E-1,5.083776116E-1,1.280641317E0,4.443913698E-1
6.080755350E-1,4.366030693E-1,1.259108901E0,4.943281412E-1
6.103902230E-1,3.755183518E-1,1.241547108E0,5.370874405E-1
6.127049630E-1,3.264978528E-1,1.227650285E0,5.700731874E-1
6.150196500E-1,2.858765125E-1,1.218793035E0,5.931326747E-1
6.173343900E-1,2.571666837E-1,1.212531805E0,6.090146899E-1
6.196490770E-1,2.331909388E-1,1.212379098E0,6.212316751E-1
6.219638170E-1,2.176143378E-1,1.213600755E0,6.248967648E-1
6.242785040E-1,2.057028115E-1,1.212379098E0,6.284091473E-1
6.265932440E-1,2.009687424E-1,1.209935665E0,6.259657145E-1
6.289079310E-1,1.985253543E-1,1.200009465E0,6.198572516E-1
6.312226710E-1,1.973036677E-1,1.182600260E0,6.087092757E-1
6.335373580E-1,1.997470558E-1,1.156486630E0,5.951179266E-1
6.358520980E-1,2.046338320E-1,1.120446563E0,5.778614879E-1
6.381667850E-1,2.107423097E-1,1.078145385E0,5.555655956E-1
6.404815250E-1,2.215848416E-1,1.030957460E0,5.296045542E-1
6.427962130E-1,2.312056869E-1,9.787300229E-1,5.024218559E-1
6.451109520E-1,2.408265322E-1,9.240592122E-1,4.715740979E-1
6.474256400E-1,2.504473627E-1,8.768712282E-1,4.395045936E-1
6.497403790E-1,2.576248348E-1,8.371661901E-1,4.025483429E-1
6.520550670E-1,2.600682080E-1,8.061656952E-1,3.706315756E-1
6.543698060E-1,2.625116110E-1,7.875348330E-1,3.385621011E-1
6.566845460E-1,2.588465214E-1,7.753179073E-1,3.066453338E-1
6.589992330E-1,2.515163720E-1,7.667660117E-1,2.735068500E-1
6.613139730E-1,2.431172132E-1,7.606575489E-1,2.415900975E-1
6.636286600E-1,2.322746664E-1,7.508839965E-1,2.095206082E-1
6.659434000E-1,2.166980654E-1,7.372926474E-1,1.776038408E-1
6.682580880E-1,2.011214644E-1,7.162184119E-1,1.455343664E-1
6.705728270E-1,1.843231618E-1,6.902574301E-1,1.148392856E-1
6.728875150E-1,1.675248593E-1,6.604785919E-1,8.887827396E-2
6.752022540E-1,1.496575773E-1,6.232169271E-1,6.536065787E-2
6.775169420E-1,1.281252056E-1,5.809157491E-1,4.428642616E-2
6.798316810E-1,1.053711548E-1,5.386145711E-1,2.932066843E-2
6.821463690E-1,8.154810965E-2,4.938700199E-1,1.435491070E-2
6.844611080E-1,5.528167635E-2,4.503471553E-1,3.054236295E-3
6.867757960E-1,2.657185495E-2,4.030064642E-1,-3.359660041E-3
6.890905350E-1,-3.359660041E-3,3.643703759E-1,-3.665083554E-3
6.914052230E-1,-3.436015919E-2,3.281776905E-1,-1.527118147E-4
6.937199630E-1,-6.902574003E-2,2.956500649E-1,9.315420873E-3
6.960346500E-1,-1.049130186E-1,2.707580328E-1,2.260134928E-2
6.983493900E-1,-1.395785958E-1,2.544178963E-1,4.337015375E-2
7.006640770E-1,-1.766875684E-1,2.542651594E-1,6.902574003E-2
7.029659000E-1,-2.160872221E-1,2.666348219E-1,1.032331884E-1
7.052935040E-1,-2.556395829E-1,2.875563502E-1,1.388150454E-1
7.076082440E-1,-2.964136302E-1,3.148917556E-1,1.743968874E-1
7.099229830E-1,-3.394783735E-1,3.408527672E-1,2.099787444E-1
7.122376710E-1,-3.814741075E-1,3.619270027E-1,2.418955117E-1
7.145524100E-1,-4.173613787E-1,3.804051280E-1,2.724378705E-1
7.168670980E-1,-4.472928941E-1,3.878880143E-1,2.944283783E-1
7.191818380E-1,-4.712686539E-1,3.865135908E-1,3.115321100E-1
7.214965250E-1,-4.879142344E-1,3.802524209E-1,3.261924386E-1
7.237983480E-1,-4.975350797E-1,3.689517379E-1,3.371876776E-1
7.261259520E-1,-5.010474920E-1,3.527642787E-1,3.408527672E-1
7.284406920E-1,-4.998257756E-1,3.339807391E-1,3.443651497E-1
7.307424630E-1,-4.924955964E-1,3.165715933E-1,3.443651497E-1
7.330701190E-1,-4.805840850E-1,2.977880239E-1,3.407000601E-1
7.353848060E-1,-4.625640810E-1,2.829749882E-1,3.356605768E-1
7.376866290E-1,-4.433223903E-1,2.680092454E-1,3.271087110E-1
7.400142330E-1,-4.181249440E-1,2.542651594E-1,3.173351586E-1
7.423289730E-1,-3.941491842E-1,2.457133085E-1,3.051182032E-1
7.446436600E-1,-3.654393852E-1,2.382304370E-1,2.904578745E-1
7.469584000E-1,-3.355078697E-1,2.309002578E-1,2.733541429E-1
7.492730880E-1,-3.031329513E-1,2.209739983E-1,2.524326444E-1
7.515878270E-1,-2.684673667E-1,2.098260373E-1,2.292204350E-1
7.539025150E-1,-2.336490750E-1,1.962346882E-1,2.035648525E-1
7.562172540E-1,-2.014268786E-1,1.838650256E-1,1.789782494E-1
7.585319420E-1,-1.666085869E-1,1.716480851E-1,1.533226669E-1
7.608466810E-1,-1.307213157E-1,1.592784226E-1,1.276670843E-1
7.631613690E-1,-9.483403713E-2,1.456870735E-1,1.043021679E-1
7.654761080E-1,-6.001574174E-2,1.319430023E-1,8.475505561E-2
7.677907960E-1,-2.764083818E-2,1.183516532E-1,6.398624927E-2
7.701055350E-1,1.068982761E-3,1.033858955E-1,4.428642616E-2
7.724202230E-1,3.100049868E-2,8.857285231E-2,2.596100792E-2
7.747349630E-1,5.619794875E-2,7.116370648E-2,8.857285604E-3
7.770497020E-1,8.017370105E-2,5.375456065E-2,-4.734066315E-3
7.793643900E-1,9.819369763E-2,3.512371704E-2,-1.695101149E-2
7.816791290E-1,1.149920002E-1,1.771457121E-2,-2.932066843E-2
7.839938170E-1,1.269035190E-1,-2.137965523E-3,-3.909422457E-2
7.863085560E-1,1.377460510E-1,-2.076880634E-2,-4.779879749E-2
7.886232440E-1,1.414111406E-1,-4.443913698E-2,-5.528167635E-2
7.909379830E-1,1.475196183E-1,-6.933116168E-2,-5.894676223E-2
7.932526710E-1,1.499630064E-1,-9.559759498E-2,-6.398624927E-2
7.955674100E-1,1.464506239E-1,-1.217113137E-1,-6.536065787E-2
7.978820980E-1,1.452289373E-1,-1.466033459E-1,-6.795676053E-2
8.001968380E-1,1.417165697E-1,-1.702736765E-1,-6.933116168E-2
8.025115250E-1,1.394258887E-1,-1.890572309E-1,-6.566607952E-2
8.048262650E-1,1.346918195E-1,-1.989834905E-1,-5.833591148E-2
8.071409520E-1,1.287360638E-1,-2.090624720E-1,-5.100574717E-2
8.094556920E-1,1.238492802E-1,-2.116585821E-1,-3.634541109E-2
8.117703790E-1,1.178935245E-1,-2.053973973E-1,-2.412846684E-2
8.140851190E-1,1.119377613E-1,-1.956238300E-1,-5.650337320E-3
8.163998060E-1,1.012479365E-1,-1.782146841E-1,1.160609815E-2
8.187145460E-1,9.513945878E-2,-1.620272398E-1,2.993151546E-2
8.210292330E-1,8.078455180E-2,-1.472141892E-1,4.596625641E-2
8.233439730E-1,6.765133142E-2,-1.322484314E-1,5.696150661E-2
8.256586600E-1,5.680879578E-2,-1.148392856E-1,6.810946763E-2
8.279734000E-1,4.474456236E-2,-1.012479365E-1,7.666133344E-2
8.302881400E-1,3.405473381E-2,-8.872556686E-2,8.414421231E-2
8.326028270E-1,2.443389036E-2,-7.757759839E-2,8.780929446E-2
8.349175670E-1,1.603474095E-2,-6.520794332E-2,9.025268257E-2
8.372322540E-1,9.926267900E-3,-6.016845629E-2,9.147437662E-2
8.395469940E-1,5.192201585E-3,-5.146388337E-2,8.780929446E-2
8.418616810E-1,5.192201585E-3,-4.520269856E-2,8.414421231E-2
8.441764210E-1,5.039489828E-3,-4.260659590E-2,7.803573459E-2
8.464911080E-1,7.482878864E-3,-3.756710514E-2,7.070557028E-2
8.488058480E-1,1.221694518E-2,-3.512371704E-2,6.215370819E-2
8.511205350E-1,1.817270555E-2,-3.252761811E-2,5.238015205E-2
8.534352750E-1,2.901524492E-2,-3.130592033E-2,4.382828996E-2
8.557499630E-1,3.848337755E-2,-3.237490356E-2,3.161134571E-2
8.580647020E-1,5.054761097E-2,-3.741439432E-2,2.305948362E-2
8.603793900E-1,6.490252167E-2,-4.611896724E-2,1.328592747E-2
8.626941290E-1,7.574506104E-2,-5.848862603E-2,-3.054236295E-4
8.650088170E-1,9.132166207E-2,-7.467607409E-2,-1.130067464E-2
8.673235560E-1,1.032331884E-1,-8.826743066E-2,-1.756185852E-2
8.696382440E-1,1.152974218E-1,-9.941539168E-2,-2.611372061E-2
8.719529830E-1,1.236965731E-1,-1.068982705E-1,-3.466558084E-2
8.742676710E-1,1.272089481E-1,-1.131594554E-1,-4.214845970E-2
8.765824100E-1,1.272089481E-1,-1.081199646E-1,-4.947862774E-2
8.788970980E-1,1.212531775E-1,-9.804098308E-2,-5.680879578E-2
8.812118380E-1,1.079672500E-1,-7.803573459E-2,-6.398624927E-2
8.835265250E-1,9.223793447E-2,-5.054761097E-2,-7.375980914E-2
8.858412650E-1,6.933116168E-2,-2.183778957E-2,-8.231166750E-2
8.881560040E-1,4.046862945E-2,1.053711493E-2,-9.208522737E-2
8.904706920E-1,1.160609815E-2,4.428642616E-2,-9.941539168E-2
8.927854310E-1,-2.076880634E-2,7.299624383E-2,-1.091889441E-1
8.951001190E-1,-5.329642445E-2,9.804098308E-2,-1.189625040E-1
8.974148580E-1,-8.200624585E-2,1.206423342E-1,-1.262926757E-1
8.997295460E-1,-1.120904684E-1,1.369825006E-1,-1.398840249E-1
9.020442850E-1,-1.360662282E-1,1.456870735E-1,-1.496575773E-1
9.043589730E-1,-1.577513069E-1,1.531699449E-1,-1.569877416E-1
9.066737130E-1,-1.757712960E-1,1.557660550E-1,-1.669140160E-1
9.089884000E-1,-1.864611208E-1,1.595838517E-1,-1.754658818E-1
9.113031400E-1,-1.913478971E-1,1.620272398E-1,-1.827960461E-1
9.136178270E-1,-1.889045089E-1,1.646233350E-1,-1.827960461E-1
9.159325670E-1,-1.829487532E-1,1.658450365E-1,-1.815743446E-1
9.182472540E-1,-1.757712960E-1,1.658450365E-1,-1.766875684E-1
9.205619940E-1,-1.614163816E-1,1.656923145E-1,-1.692046970E-1
9.228766810E-1,-1.458397806E-1,1.669140160E-1,-1.582094431E-1
9.251914210E-1,-1.288887709E-1,1.643179059E-1,-1.409530044E-1
9.275061080E-1,-1.120904684E-1,1.667613089E-1,-1.236965731E-1
9.298208480E-1,-9.529217333E-2,1.653869003E-1,-1.027750522E-1
9.321355350E-1,-7.482878864E-2,1.591257155E-1,-8.322793990E-2
9.344502750E-1,-5.558710173E-2,1.490467340E-1,-6.474980712E-2
9.367650150E-1,-3.756710514E-2,1.351499557E-1,-4.642439261E-2
9.390797020E-1,-2.076880634E-2,1.188097894E-1,-3.054236248E-2
9.413944420E-1,-5.039489828E-3,9.620844573E-2,-1.832541823E-2
9.437091290E-1,9.468132630E-3,7.116370648E-2,-6.108472589E-3
9.460238690E-1,2.382304333E-2,4.382828996E-2,-0.000000000E0
9.483385560E-1,3.481829539E-2,1.389677543E-2,1.068982761E-3
9.506532960E-1,4.566083103E-2,-1.725643501E-2,1.068982761E-3
9.529679830E-1,5.772506446E-2,-5.100574717E-2,-1.527118147E-3
9.552827230E-1,6.734590977E-2,-8.460234851E-2,-7.788302377E-3
9.575974100E-1,7.574506104E-2,-1.194206402E-1,-1.649287529E-2
9.599121500E-1,8.780929446E-2,-1.530172378E-1,-3.008422814E-2
9.622268380E-1,9.513945878E-2,-1.890572309E-1,-4.489727318E-2
9.645415770E-1,1.023169160E-1,-2.264716178E-1,-6.108472496E-2
9.668562650E-1,1.084253863E-1,-2.637332976E-1,-7.956285775E-2
9.691710040E-1,1.156028435E-1,-3.060344756E-1,-9.941539168E-2
9.714856920E-1,1.217113137E-1,-3.432961702E-1,-1.203369126E-1
9.738004310E-1,1.264453828E-1,-3.805578351E-1,-1.388150454E-1
9.761151190E-1,1.313321590E-1,-4.165978432E-1,-1.586675793E-1
9.784298580E-1,1.374406368E-1,-4.514161348E-1,-1.747023165E-1
9.807445460E-1,1.433963925E-1,-4.813476503E-1,-1.882936656E-1
9.830592850E-1,1.507265568E-1,-5.099047422E-1,-1.994416267E-1
9.853740250E-1,1.566823274E-1,-5.347967744E-1,-2.081461996E-1
9.876887130E-1,1.603474021E-1,-5.560237169E-1,-2.144073844E-1
9.900034520E-1,1.663031727E-1,-5.709894896E-1,-2.192941606E-1
9.923181400E-1,1.699682474E-1,-5.796940327E-1,-2.229592502E-1
9.946328790E-1,1.711899489E-1,-5.821374655E-1,-2.205158621E-1
9.969475670E-1,1.687465608E-1,-5.758762360E-1,-2.156290859E-1
9.992623060E-1,1.663031727E-1,-5.659499764E-1,-2.107423097E-1
1.001576994E0,1.603474021E-1,-5.523586273E-1,-2.020377368E-1
1.003891733E0,1.495048702E-1,-5.361711979E-1,-1.910424829E-1
1.006206421E0,1.375933439E-1,-5.175403357E-1,-1.786728203E-1
1.008521160E0,1.243074164E-1,-4.950917065E-1,-1.650814712E-1
1.010835848E0,1.099525094E-1,-4.677563012E-1,-1.490467340E-1
1.013150588E0,9.315420687E-2,-4.379774928E-1,-1.392731816E-1
1.015465275E0,7.513421029E-2,-4.068242610E-1,-1.244601309E-1
1.017780015E0,5.589252338E-2,-3.770454824E-1,-1.157555580E-1
1.020094702E0,3.420744836E-2,-3.471139669E-1,-1.094943732E-1
1.022409442E0,1.374406368E-2,-3.210002482E-1,-1.009425074E-1
1.024724129E0,-1.023169141E-2,-2.997733057E-1,-9.972081333E-2
1.027038869E0,-3.191677108E-2,-2.785463631E-1,-1.007898003E-1
1.029353608E0,-5.711421743E-2,-2.585411072E-1,-1.032331884E-1
1.031668296E0,-8.231166750E-2,-2.373141646E-1,-1.093416587E-1
1.033983035E0,-1.062874198E-1,-2.160872221E-1,-1.154501289E-1
1.036297723E0,-1.304158866E-1,-1.936385781E-1,-1.215586066E-1
1.038612463E0,-1.568350345E-1,-1.699682474E-1,-1.264453828E-1
1.040927150E0,-1.795890927E-1,-1.499630064E-1,-1.337755471E-1
1.043241890E0,-2.037175596E-1,-1.299577504E-1,-1.398840249E-1
1.045556577E0,-2.252499312E-1,-1.174353883E-1,-1.461452097E-1
1.047871317E0,-2.444916219E-1,-1.099525094E-1,-1.522536725E-1
1.050186004E0,-2.625116110E-1,-1.073564067E-1,-1.583621502E-1
1.052500744E0,-2.829749882E-1,-1.097997949E-1,-1.658450365E-1
1.054815431E0,-2.985515893E-1,-1.185043678E-1,-1.757712960E-1
1.057130171E0,-3.116848171E-1,-1.334701329E-1,-1.820324808E-1
1.059444858E0,-3.235963285E-1,-1.546970755E-1,-1.870719790E-1
1.061759598E0,-3.295520842E-1,-1.733279079E-1,-1.944021434E-1
1.064074285E0,-3.318427801E-1,-1.957765520E-1,-1.994416267E-1
1.066389025E0,-3.293993771E-1,-2.180724740E-1,-2.044811249E-1
1.068703713E0,-3.234436214E-1,-2.392994165E-1,-2.105895877E-1
1.071018452E0,-3.113794029E-1,-2.567085624E-1,-2.168507725E-1
1.073333140E0,-2.970244884E-1,-2.690782249E-1,-2.205158621E-1
1.075647879E0,-2.777827978E-1,-2.777827978E-1,-2.254026383E-1
1.077962619E0,-2.502946556E-1,-2.864873707E-1,-2.327328026E-1
1.080277306E0,-2.166980654E-1,-2.903051674E-1,-2.388412803E-1
1.082592046E0,-1.831014603E-1,-2.939702570E-1,-2.435753495E-1
1.084893817E0,-1.459924877E-1,-2.901524603E-1,-2.496838123E-1
1.087221473E0,-1.029277667E-1,-2.889307439E-1,-2.568612695E-1
1.089536160E0,-5.864133686E-2,-2.826695740E-1,-2.652604282E-1
1.091850900E0,-1.191152167E-2,-2.727433145E-1,-2.687727809E-1
1.094165588E0,3.115320951E-2,-2.602209449E-1,-2.722851634E-1
1.096480327E0,7.192726433E-2,-2.440334857E-1,-2.721324563E-1
1.098795015E0,1.127013192E-1,-2.254026383E-1,-2.695363462E-1
1.101109754E0,1.498102844E-1,-2.041756958E-1,-2.680092454E-1
1.103424442E0,1.797417998E-1,-1.843231618E-1,-2.593046725E-1
1.105739181E0,2.084516287E-1,-1.582094431E-1,-2.530434728E-1
1.108053869E0,2.298312783E-1,-1.307213157E-1,-2.429644912E-1
1.110368608E0,2.431172132E-1,-1.059819981E-1,-2.318165302E-1
1.112683296E0,2.513636351E-1,-7.482878864E-2,-2.182251811E-1
1.114998035E0,2.525853515E-1,-4.123219103E-2,-2.032594234E-1
1.117312723E0,2.476985604E-1,-1.145338640E-2,-1.872246861E-1
1.119614546E0,2.344126403E-1,2.092151903E-2,-1.748550236E-1
1.121942150E0,2.176143378E-1,4.947862774E-2,-1.588202864E-1
1.124256890E0,1.948602796E-1,7.818844914E-2,-1.441599578E-1
1.126558713E0,1.684411317E-1,1.068982705E-1,-1.293469071E-1
1.128886317E0,1.395785958E-1,1.305686086E-1,-1.171299592E-1
1.131201056E0,1.036913246E-1,1.528645307E-1,-1.047603041E-1
1.133502827E0,6.887302548E-2,1.690519750E-1,-9.620844573E-2
1.135830483E0,3.298575059E-2,1.840177327E-1,-8.765657991E-2
1.138145171E0,-1.832541777E-3,1.951656938E-1,-7.910472155E-2
1.140459910E0,-4.016320780E-2,2.026485801E-1,-7.681404054E-2
1.142774598E0,-7.971556485E-2,2.125748396E-1,-7.070557028E-2
1.145089338E0,-1.181989461E-1,2.163926363E-1,-6.841489673E-2
1.147404025E0,-1.553079188E-1,2.188360244E-1,-6.841489673E-2
1.149718765E0,-1.889045089E-1,2.176143378E-1,-6.978929788E-2
1.152033452E0,-2.200577259E-1,2.125748396E-1,-7.116370648E-2
1.154348192E0,-2.487675399E-1,2.052446753E-1,-7.360709459E-2
1.156662879E0,-2.727433145E-1,1.953184158E-1,-8.108997345E-2
1.158977619E0,-2.918322682E-1,1.777565479E-1,-8.612946421E-2
1.161292306E0,-3.098522723E-1,1.579040140E-1,-9.361234307E-2
1.163607046E0,-3.240544796E-1,1.342336833E-1,-1.023169160E-1
1.165921733E0,-3.336753249E-1,1.068982705E-1,-1.111742035E-1
1.168236473E0,-3.396310806E-1,7.941014320E-2,-1.174353883E-1
1.170551213E0,-3.431434333E-1,4.947862774E-2,-1.261399537E-1
1.172865900E0,-3.419217467E-1,1.832541823E-2,-1.311794519E-1
1.175180640E0,-3.370349705E-1,-1.038440317E-2,-1.324011385E-1
1.177495327E0,-3.333698809E-1,-3.894151375E-2,-1.349972486E-1
1.179810067E0,-3.272614181E-1,-6.398624927E-2,-1.327065676E-1
1.182124754E0,-3.176405728E-1,-8.765657991E-2,-1.314848661E-1
1.184439494E0,-3.092414141E-1,-1.088835225E-1,-1.279724985E-1
1.186754181E0,-2.983988822E-1,-1.301104724E-1,-1.206423342E-1
1.189068921E0,-2.898470163E-1,-1.475196183E-1,-1.120904684E-1
1.191383608E0,-2.790044844E-1,-1.650814712E-1,-1.023169160E-1
1.193698348E0,-2.669402659E-1,-1.812689304E-1,-9.376505762E-2
1.196013035E0,-2.560977042E-1,-1.925695986E-1,-8.521319181E-2
1.198327775E0,-2.452551723E-1,-2.050919682E-1,-7.666133344E-2
1.200642463E0,-2.344126403E-1,-2.125748396E-1,-7.055285573E-2
1.202957202E0,-2.225011140E-1,-2.200577259E-1,-6.429167092E-2
1.205271942E0,-2.141019702E-1,-2.238755226E-1,-6.062658876E-2
1.207586629E0,-2.057028115E-1,-2.263189107E-1,-5.818320066E-2
1.209901369E0,-1.948602796E-1,-2.289150059E-1,-5.573981255E-2
1.212216056E0,-1.876828223E-1,-2.276933193E-1,-5.329642445E-2
1.214530796E0,-1.756185889E-1,-2.264716178E-1,-5.192201585E-2
1.216845483E0,-1.649287641E-1,-2.238755226E-1,-5.558710173E-2
1.219160223E0,-1.553079188E-1,-2.189887464E-1,-5.436540768E-2
1.221474910E0,-1.481304616E-1,-2.115058601E-1,-5.436540768E-2
1.223789650E0,-1.421747059E-1,-2.014268786E-1,-5.787777901E-2
1.226104338E0,-1.362189353E-1,-1.890572309E-1,-5.787777901E-2
1.228419077E0,-1.314848661E-1,-1.753131598E-1,-5.528167635E-2
1.230733765E0,-1.302631795E-1,-1.591257155E-1,-5.528167635E-2
1.233048504E0,-1.304158866E-1,-1.429382563E-1,-5.024218559E-2
1.235363192E0,-1.279724985E-1,-1.241547018E-1,-4.902049154E-2
1.237677931E0,-1.269035190E-1,-1.043021679E-1,-4.642439261E-2
1.239992619E0,-1.304158866E-1,-8.567132801E-2,-4.260659590E-2
1.242307358E0,-1.328592747E-1,-6.810946763E-2,-3.771981969E-2
1.244622098E0,-1.330119967E-1,-4.947862774E-2,-3.390202299E-2
1.246936785E0,-1.342336833E-1,-3.588727489E-2,-2.901524492E-2
1.249251525E0,-1.377460510E-1,-1.969982497E-2,-2.641914412E-2
1.251566213E0,-1.401894391E-1,-7.177455351E-3,-2.397575416E-2
1.253880952E0,-1.450762302E-1,6.566607859E-3,-2.153236605E-2
1.256195640E0,-1.450762302E-1,1.893626526E-2,-2.137965336E-2
1.258510379E0,-1.462979168E-1,3.268032894E-2,-1.893626526E-2
1.260825067E0,-1.450762302E-1,4.382828996E-2,-1.511846948E-2
1.263139806E0,-1.415638477E-1,5.757235363E-2,-1.634016447E-2
1.265454494E0,-1.391204596E-1,6.505523622E-2,-1.389677543E-2
1.267769233E0,-1.331647038E-1,7.131642103E-2,-1.007897966E-2
1.270083921E0,-1.247655526E-1,7.498150319E-2,-5.192201585E-3
1.272398660E0,-1.151447073E-1,7.620319724E-2,9.162708884E-4
1.274713348E0,-1.079672500E-1,7.498150319E-2,7.177455351E-3
1.277028088E0,-9.712471068E-2,7.360709459E-2,1.450762246E-2
1.279342775E0,-9.116895497E-2,6.856760383E-2,2.061609551E-2
1.281657515E0,-8.154810965E-2,6.230641901E-2,2.916795574E-2
1.283972254E0,-7.314895838E-2,5.238015205E-2,3.527642787E-2
1.286286942E0,-6.597150117E-2,4.107947648E-2,3.771981969E-2
1.288601681E0,-5.619794875E-2,2.489202656E-2,4.260659590E-2
1.290916369E0,-4.779879749E-2,6.108472589E-3,4.627167806E-2
1.293231108E0,-3.939964995E-2,-1.007897966E-2,5.115845799E-2
1.295545796E0,-3.206948191E-2,-3.008422814E-2,5.100574717E-2
1.297860535E0,-2.367033064E-2,-4.871506989E-2,5.467082933E-2
1.300175223E0,-1.404948719E-2,-6.872031838E-2,5.344913527E-2
1.302489963E0,-9.162709117E-3,-8.735115826E-2,5.451811850E-2
1.304804650E0,-3.206948051E-3,-1.085781008E-1,5.329642445E-2
1.307119390E0,-7.635590737E-4,-1.259872466E-1,5.314370990E-2
1.309434077E0,1.679830020E-3,-1.433963925E-1,5.192201585E-2
1.311748817E0,2.901524538E-3,-1.646233350E-1,4.932591692E-2
1.314063504E0,1.832541777E-3,-1.808107942E-1,4.688252881E-2
1.316378244E0,-6.108472589E-4,-1.957765520E-1,4.672981426E-2
1.318692983E0,-1.679830020E-3,-2.107423097E-1,4.428642616E-2
1.321007671E0,-8.857285604E-3,-2.244863659E-1,4.413371533E-2
1.323322410E0,-1.252236869E-2,-2.319692522E-1,4.291202128E-2
1.325637098E0,-2.199050039E-2,-2.344126403E-1,4.413371533E-2
1.327951838E0,-3.161134571E-2,-2.344126403E-1,4.275930673E-2
1.330266525E0,-4.001049697E-2,-2.293731421E-1,4.398100078E-2
1.332581265E0,-4.963133857E-2,-2.293731421E-1,4.153761268E-2
1.334895952E0,-6.276455522E-2,-2.281514555E-1,4.275930673E-2
1.337210692E0,-7.482878864E-2,-2.281514555E-1,4.031591862E-2
1.339525379E0,-8.322793990E-2,-2.305948436E-1,3.909422457E-2
1.341840119E0,-9.269607067E-2,-2.331909388E-1,3.771981969E-2
1.344154806E0,-9.758284688E-2,-2.368560284E-1,3.771981969E-2
1.346469546E0,-1.023169160E-1,-2.405211031E-1,3.649812192E-2
1.348784233E0,-1.035386100E-1,-2.431172132E-1,3.771981969E-2
1.351098973E0,-1.035386100E-1,-2.455606014E-1,3.894151375E-2
1.353413660E0,-1.023169160E-1,-2.431172132E-1,4.260659590E-2
1.355728400E0,-9.987352788E-2,-2.443388999E-1,4.749337584E-2
1.358043088E0,-9.391776472E-2,-2.443388999E-1,4.749337584E-2
1.360357827E0,-8.551861346E-2,-2.406738251E-1,4.871506989E-2
1.362672567E0,-7.834116369E-2,-2.368560284E-1,4.764608666E-2
1.364987254E0,-7.116370648E-2,-2.269297540E-1,4.275930673E-2
1.367301994E0,-6.047387794E-2,-2.194468826E-1,3.909422457E-2
1.369616681E0,-4.856235534E-2,-2.107423097E-1,3.558185324E-2
1.371931421E0,-3.649812192E-2,-2.018850148E-1,3.069507517E-2
1.374246108E0,-2.580829710E-2,-1.881409585E-1,2.458660305E-2
1.376560848E0,-1.267508045E-2,-1.731752008E-1,2.107422985E-2
1.378875535E0,-1.985253533E-3,-1.545443535E-1,1.756185852E-2
1.381190275E0,7.635590620E-3,-1.320957243E-1,1.267508045E-2
1.383504963E0,1.588202827E-2,-1.033858955E-1,1.160609815E-2
1.385819702E0,2.183778957E-2,-7.467607409E-2,9.315420873E-3
1.388134390E0,2.412846684E-2,-4.352286831E-2,8.246437646E-3
1.390449129E0,2.764083818E-2,-1.114796288E-2,9.620844387E-3
1.392763869E0,2.993151546E-2,1.756185852E-2,1.221694518E-2
1.395078556E0,2.993151546E-2,4.489727318E-2,1.481304597E-2
1.397393296E0,3.100049868E-2,6.856760383E-2,1.969982497E-2
1.399707983E0,2.626643144E-2,8.979454637E-2,2.718270384E-2
1.402022723E0,2.260134928E-2,1.085781008E-1,3.344388679E-2
1.404337410E0,1.771457121E-2,1.247655526E-1,3.833066672E-2
1.406652150E0,1.175880991E-2,1.371352077E-1,4.703523964E-2
1.408966838E0,4.581354558E-3,1.470614821E-1,5.314370990E-2
1.411281577E0,-2.596100792E-3,1.583621502E-1,6.047387794E-2
1.413596265E0,-1.221694518E-2,1.632489264E-1,6.658235192E-2
1.415911004E0,-2.183778957E-2,1.656923145E-1,7.146912813E-2
1.418225692E0,-3.374931216E-2,1.644706279E-1,7.513421029E-2
1.420540431E0,-4.581354558E-2,1.656923145E-1,7.757759839E-2
1.422855119E0,-5.650337040E-2,1.606528312E-1,8.246438205E-2
1.425169858E0,-6.841489673E-2,1.531699449E-1,7.986827940E-2
1.427484598E0,-8.047912270E-2,1.444653720E-1,7.864658535E-2
1.429799285E0,-8.994726092E-2,1.333174109E-1,7.727217674E-2
1.432114025E0,-9.834641218E-2,1.221694499E-1,7.238540053E-2
1.434428713E0,-1.032331884E-1,1.096470803E-1,6.856760383E-2
1.436743452E0,-1.055238619E-1,9.590301663E-2,6.123743951E-2
1.439058140E0,-1.079672500E-1,8.597674966E-2,5.375456065E-2
1.441372879E0,-1.055238619E-1,7.467607409E-2,4.642439261E-2
1.443687567E0,-1.030804738E-1,6.856760383E-2,4.016320780E-2
1.446002306E0,-9.468132257E-2,6.108472496E-2,3.405473381E-2
1.448316994E0,-8.399149776E-2,5.482354015E-2,2.794626169E-2
1.450631733E0,-7.070557028E-2,4.871506989E-2,2.550287358E-2
1.452946421E0,-5.635065958E-2,4.611896724E-2,1.939439960E-2
1.455261160E0,-3.955236077E-2,4.001049697E-2,1.572931744E-2
1.457575848E0,-2.046338283E-2,3.497100621E-2,1.328592747E-2
1.459890588E0,-1.221694518E-3,3.130592033E-2,9.620844387E-3
1.462205327E0,1.801999472E-2,2.504473738E-2,1.343864016E-2
1.464520015E0,3.833066672E-2,1.878355257E-2,1.588202827E-2
1.466834754E0,5.757235363E-2,1.130067464E-2,1.954711229E-2
1.469149442E0,7.681404054E-2,7.482878864E-3,2.458660305E-2
1.471464181E0,9.361234307E-2,-1.221694518E-3,2.947338112E-2
1.473778869E0,1.116323397E-1,-1.252236869E-2,3.313846514E-2
1.476093608E0,1.284306347E-1,-2.382304333E-2,3.802524135E-2
1.478408296E0,1.440072358E-1,-3.497100621E-2,3.924693540E-2
1.480723035E0,1.560714692E-1,-4.367557913E-2,4.169032723E-2
1.483037723E0,1.669140160E-1,-5.253286287E-2,4.413371533E-2
1.485352463E0,1.788255423E-1,-5.619794875E-2,4.779879749E-2
1.487667150E0,1.872246861E-1,-5.619794875E-2,5.283828825E-2
1.489981890E0,1.944021434E-1,-5.497625470E-2,5.894676223E-2
1.492296577E0,2.015796006E-1,-5.008947477E-2,6.627693027E-2
1.494611317E0,2.040229887E-1,-4.764608666E-2,7.009471953E-2
1.496926004E0,2.015796006E-1,-4.275930673E-2,7.864658535E-2
1.499240744E0,1.992889196E-1,-3.771981969E-2,8.475505561E-2
1.501555483E0,1.968455315E-1,-3.023693897E-2,9.086353332E-2
1.503870171E0,1.921114624E-1,-2.290677279E-2,9.834641218E-2
1.506184910E0,1.849340051E-1,-1.420219894E-2,1.056765765E-1
1.508499598E0,1.800472289E-1,-4.275931045E-3,1.117850468E-1
1.510814338E0,1.753131598E-1,5.803049076E-3,1.168245375E-1
1.513129025E0,1.704263836E-1,1.191152167E-2,1.253764033E-1
1.515443765E0,1.669140160E-1,2.061609551E-2,1.327065676E-1
1.517758452E0,1.632489264E-1,2.809897438E-2,1.377460510E-1
1.520073192E0,1.572931707E-1,3.176405653E-2,1.462979168E-1
1.522387879E0,1.560714692E-1,3.924693540E-2,1.511846930E-1
1.524702619E0,1.548497826E-1,4.550812021E-2,1.560714692E-1
1.527017306E0,1.488940120E-1,5.405998230E-2,1.635543555E-1
1.529332046E0,1.501157135E-1,6.154286116E-2,1.721062213E-1
1.531646785E0,1.501157135E-1,7.024743408E-2,1.745496094E-1
1.533961473E0,1.476723254E-1,7.650861889E-2,1.795890927E-1
1.536276213E0,1.464506239E-1,8.383878320E-2,1.881409585E-1
1.538590900E0,1.476723254E-1,9.009996802E-2,1.918060333E-1
1.540905640E0,1.452289373E-1,9.254335612E-2,1.968455315E-1
1.543220327E0,1.429382563E-1,9.132166207E-2,2.017323077E-1
1.545535067E0,1.417165697E-1,8.750387281E-2,2.029540092E-1
1.547849754E0,1.380514801E-1,8.139539510E-2,2.052446753E-1
1.550164494E0,1.333174109E-1,7.391251624E-2,2.076880634E-1
1.552479181E0,1.273616552E-1,6.505523622E-2,2.076880634E-1
1.554793921E0,1.189625040E-1,5.512896553E-2,2.063136548E-1
1.557108608E0,1.058292910E-1,4.520269856E-2,2.063136548E-1
1.559423348E0,9.269607067E-2,3.527642787E-2,2.061609477E-1
1.561738088E0,8.078455180E-2,2.519745007E-2,2.024958730E-1
1.564052775E0,6.872031838E-2,1.527118124E-2,1.974563748E-1
1.566367515E0,5.558710173E-2,4.581354442E-4,1.899735034E-1
1.568682202E0,4.367557913E-2,-1.450762246E-2,1.837123185E-1
1.570996942E0,3.527642787E-2,-3.069507517E-2,1.751604527E-1
1.573311629E0,2.809897438E-2,-4.688252881E-2,1.640124917E-1
1.575626369E0,2.214321308E-2,-6.047387794E-2,1.553079188E-1
1.577941056E0,1.969982497E-2,-7.421794534E-2,1.453816444E-1
1.580255796E0,1.740914769E-2,-8.658760041E-2,1.356080920E-1
1.582570483E0,2.214321308E-2,-9.773556143E-2,1.244601309E-1
1.584885223E0,2.687728032E-2,-1.088835225E-1,1.146865711E-1
1.587199910E0,3.176405653E-2,-1.137702987E-1,1.047603041E-1
1.589514650E0,3.771981969E-2,-1.175880954E-1,9.865183383E-2
1.591829390E0,4.611896724E-2,-1.175880954E-1,9.376505762E-2
1.594144077E0,5.680879578E-2,-1.137702987E-1,9.025268257E-2
1.596458817E0,6.520794332E-2,-1.087308154E-1,9.025268257E-2
1.598773504E0,7.482878864E-2,-1.000262350E-1,9.147437662E-2
1.601088244E0,8.200624585E-2,-8.506047726E-2,9.407047927E-2
1.603402931E0,8.918370306E-2,-7.024743408E-2,1.003316641E-1
1.605717671E0,9.743013978E-2,-5.405998230E-2,1.076618284E-1
1.608032358E0,1.070509851E-1,-3.420744836E-2,1.200314835E-1
1.610347098E0,1.117850468E-1,-1.298050396E-2,1.324011385E-1
1.612661785E0,1.189625040E-1,1.191152167E-2,1.449235082E-1
1.614976525E0,1.261399537E-1,3.542914242E-2,1.621799469E-1
1.617291213E0,1.296523362E-1,6.154286116E-2,1.769929975E-1
1.619605952E0,1.356080920E-1,8.765657991E-2,1.966928244E-1
1.621920692E0,1.380514801E-1,1.151447073E-1,2.177670449E-1
1.624235379E0,1.440072358E-1,1.411057115E-1,2.374668717E-1
1.626550067E0,1.487413049E-1,1.647760421E-1,2.596100867E-1
1.628864806E0,1.548497826E-1,1.895153672E-1,2.793098986E-1
1.631179546E0,1.559187621E-1,2.118112892E-1,3.003841341E-1
1.633494233E0,1.595838517E-1,2.342599183E-1,3.176405728E-1
1.635808973E0,1.630962193E-1,2.502946556E-1,3.361186981E-1
1.638123660E0,1.679829955E-1,2.664821148E-1,3.521534503E-1
1.640438400E0,1.739387512E-1,2.788517773E-1,3.643703759E-1
1.642753088E0,1.823379099E-1,2.899997234E-1,3.767400384E-1
1.645067827E0,1.882936656E-1,2.974826097E-1,3.854446113E-1
1.647382515E0,1.954711229E-1,3.023693860E-1,3.927747905E-1
1.649697254E0,2.014268786E-1,3.035911024E-1,3.978142738E-1
1.652011942E0,2.087570578E-1,3.035911024E-1,4.002576768E-1
1.654326681E0,2.147128135E-1,2.985515893E-1,3.990359604E-1
1.656641421E0,2.194468826E-1,2.948864996E-1,3.990359604E-1
1.658956108E0,2.255553454E-1,2.849602401E-1,3.964398801E-1
1.661270848E0,2.267770469E-1,2.699944973E-1,3.927747905E-1
1.663585535E0,2.292204350E-1,2.525853515E-1,3.901786804E-1
1.665900275E0,2.304421216E-1,2.325800955E-1,3.865135908E-1
1.668214963E0,2.316638231E-1,2.151709497E-1,3.851391971E-1
1.670529702E0,2.328855246E-1,1.915006191E-1,3.802524209E-1
1.672844390E0,2.328855246E-1,1.666085869E-1,3.788780272E-1
1.675159129E0,2.342599183E-1,1.404948682E-1,3.762819171E-1
1.677473817E0,2.330382317E-1,1.117850468E-1,3.700207174E-1
1.679788556E0,2.344126403E-1,8.047912270E-2,3.613161445E-1
1.682103244E0,2.344126403E-1,4.566083103E-2,3.538332880E-1
1.684417983E0,2.356343269E-1,9.620844387E-3,3.439069986E-1
1.686732723E0,2.392994165E-1,-2.153236605E-2,3.327590525E-1
1.689047410E0,2.405211031E-1,-5.390727147E-2,3.214583695E-1
1.691362150E0,2.478512824E-1,-8.002099395E-2,3.080197275E-1
1.693676838E0,2.550287247E-1,-1.099525094E-1,2.956500649E-1
1.695991577E0,2.611372173E-1,-1.346918195E-1,2.808370292E-1
1.698306265E0,2.683146596E-1,-1.583621502E-1,2.696890533E-1
1.700621004E0,2.742704153E-1,-1.808107942E-1,2.573194206E-1
1.702935692E0,2.803788781E-1,-2.043284029E-1,2.486148328E-1
1.705250431E0,2.851129472E-1,-2.229592502E-1,2.374668717E-1
1.707565119E0,2.899997234E-1,-2.429644912E-1,2.289150059E-1
1.709879858E0,2.936648130E-1,-2.591519356E-1,2.202104330E-1
1.712194598E0,2.948864996E-1,-2.739650011E-1,2.153236568E-1
1.714509285E0,2.936648130E-1,-2.852656841E-1,2.115058601E-1
1.716824025E0,2.899997234E-1,-2.901524603E-1,2.078407854E-1
1.719138713E0,2.852656841E-1,-2.939702570E-1,2.066190839E-1
1.721453452E0,2.805316150E-1,-2.951919436E-1,2.041756958E-1
1.723768140E0,2.696890533E-1,-2.901524603E-1,2.053973973E-1
1.726082879E0,2.576248348E-1,-2.852656841E-1,2.090624720E-1
1.728397567E0,2.444916219E-1,-2.790044844E-1,2.076880634E-1
1.730712306E0,2.276933193E-1,-2.677038014E-1,2.127275616E-1
1.733026994E0,2.108950168E-1,-2.553341687E-1,2.139492482E-1
1.735341733E0,1.904316396E-1,-2.403683960E-1,2.139492482E-1
1.737656421E0,1.676775664E-1,-2.266243398E-1,2.163926363E-1
1.739971160E0,1.449235082E-1,-2.116585821E-1,2.127275616E-1
1.742285848E0,1.185043678E-1,-1.928750277E-1,2.127275616E-1
1.744600588E0,9.086353332E-2,-1.742441803E-1,2.102841735E-1
1.746915327E0,6.322269142E-2,-1.566823274E-1,2.040229887E-1
1.749230015E0,3.680354729E-2,-1.354553849E-1,2.015796006E-1
1.751544754E0,1.038440317E-2,-1.142284349E-1,1.942494214E-1
1.753859442E0,-1.603474095E-2,-9.300149232E-2,1.905843467E-1
1.756174181E0,-4.138490185E-2,-7.177454978E-2,1.844758689E-1
1.758488869E0,-6.062658876E-2,-4.688252881E-2,1.809635013E-1
1.760803608E0,-8.093725890E-2,-2.061609551E-2,1.760767251E-1
1.763118296E0,-9.544488788E-2,7.941014133E-3,1.748550236E-1
1.765433035E0,-1.062874198E-1,3.665083647E-2,1.737860441E-1
1.767747775E0,-1.171299592E-1,6.291726977E-2,1.750077456E-1
1.770062463E0,-1.244601309E-1,8.903098851E-2,1.751604527E-1
1.772377150E0,-1.293469071E-1,1.128540337E-1,1.765348613E-1
1.774691890E0,-1.293469071E-1,1.340809762E-1,1.789782494E-1
1.777006629E0,-1.293469071E-1,1.527118087E-1,1.840177327E-1
1.779321317E0,-1.282779276E-1,1.652341783E-1,1.840177327E-1
1.781636056E0,-1.221694499E-1,1.763821393E-1,1.878355294E-1
1.783950744E0,-1.139230132E-1,1.863084137E-1,1.866138428E-1
1.786265483E0,-1.067455560E-1,1.937913001E-1,1.879882365E-1
1.788580171E0,-9.834641218E-2,2.063136548E-1,1.855448484E-1
1.790894910E0,-8.994726092E-2,2.150182426E-1,1.843231618E-1
1.793209598E0,-7.803573459E-2,2.275405973E-1,1.808107942E-1
1.795524338E0,-6.963659078E-2,2.412846684E-1,1.759240031E-1
1.797839025E0,-6.016845629E-2,2.550287247E-1,1.711899489E-1
1.800153765E0,-5.176930502E-2,2.748812735E-1,1.663031727E-1
1.802468504E0,-4.352286831E-2,2.912214398E-1,1.627907902E-1
1.804783192E0,-3.756710514E-2,3.110739589E-1,1.554606259E-1
1.807097931E0,-2.932066843E-2,3.310792148E-1,1.458397806E-1
1.809412619E0,-2.336490713E-2,3.510844707E-1,1.421747059E-1
1.811727358E0,-1.496575773E-2,3.674246371E-1,1.325538605E-1
1.814042046E0,-6.719320081E-3,3.860554695E-1,1.240019947E-1
1.816356785E0,1.679830020E-3,4.011739492E-1,1.142284349E-1
1.818671473E0,5.192201585E-3,4.135435820E-1,1.094943732E-1
1.820986213E0,1.359135192E-2,4.236225784E-1,1.009425074E-1
1.823300900E0,1.954711229E-2,4.323271513E-1,9.483403713E-2
1.825615640E0,2.794626169E-2,4.373666346E-1,8.872556686E-2
1.827930379E0,3.390202299E-2,4.411844313E-1,8.383878320E-2
1.830245067E0,4.337015375E-2,4.436278343E-1,8.139539510E-2
1.832559806E0,5.054761097E-2,4.474456310E-1,7.773031294E-2
1.834874494E0,5.665608495E-2,4.486673176E-1,7.666133344E-2
1.837189233E0,6.383354217E-2,4.498890042E-1,7.788302749E-2
1.839503921E0,6.734590977E-2,4.523324072E-1,8.032641560E-2
1.841818660E0,7.101099193E-2,4.535540938E-1,8.399149776E-2
1.844133348E0,7.223268598E-2,4.547757804E-1,8.887827396E-2
1.846448088E0,7.345438004E-2,4.511106908E-1,9.620844573E-2
1.848762775E0,6.749862432E-2,4.472928941E-1,1.023169160E-1
1.851077515E0,6.505523622E-2,4.434750974E-1,1.110214889E-1
1.853392202E0,6.276455522E-2,4.372139275E-1,1.195733473E-1
1.855706942E0,5.909947306E-2,4.259132445E-1,1.304158866E-1
1.858021681E0,5.329642445E-2,4.146125913E-1,1.426328421E-1
1.860336369E0,4.856235534E-2,4.008685052E-1,1.524063945E-1
1.862651108E0,4.382828996E-2,3.820849657E-1,1.646233350E-1
1.864965796E0,4.138490185E-2,3.608580232E-1,1.718007922E-1
1.867280535E0,4.031591862E-2,3.396310806E-1,1.827960461E-1
1.869595223E0,3.924693540E-2,3.133646548E-1,1.913478971E-1
1.871909963E0,3.817795217E-2,2.834331393E-1,1.985253543E-1
1.874224650E0,3.695625812E-2,2.535016239E-1,2.069245130E-1
1.876539390E0,3.955236077E-2,2.211267054E-1,2.105895877E-1
1.878854077E0,4.443913698E-2,1.873773932E-1,2.165453583E-1
1.881168817E0,5.039490014E-2,1.550024897E-1,2.200577259E-1
1.883483556E0,5.528167635E-2,1.212531775E-1,2.211267054E-1
1.885798244E0,6.261184067E-2,8.994726092E-2,2.223484069E-1
1.888112983E0,7.223268598E-2,6.001574174E-2,2.246390730E-1
1.890427671E0,7.834116369E-2,3.268032894E-2,2.232646793E-1
1.892742410E0,8.674030751E-2,7.635590620E-3,2.232646793E-1
1.895057098E0,9.651386738E-2,-1.725643501E-2,2.231119573E-1
1.897371838E0,1.049130186E-1,-3.588727489E-2,2.206685692E-1
1.899686525E0,1.157555580E-1,-5.329642445E-2,2.194468826E-1
1.902001265E0,1.241547018E-1,-6.948387623E-2,2.168507725E-1
1.904315952E0,1.301104724E-1,-8.444963396E-2,2.168507725E-1
1.906630692E0,1.349972486E-1,-9.330692142E-2,2.180724740E-1
1.908945379E0,1.409530044E-1,-1.032331884E-1,2.192941606E-1
1.911260119E0,1.470614821E-1,-1.068982705E-1,2.205158621E-1
1.913574858E0,1.493521482E-1,-1.094943732E-1,2.229592502E-1
1.915889546E0,1.517955512E-1,-1.082726792E-1,2.241809368E-1
1.918204285E0,1.517955512E-1,-1.070509851E-1,2.266243398E-1
1.920518973E0,1.517955512E-1,-1.058292910E-1,2.266243398E-1
1.922833713E0,1.482831687E-1,-1.020114943E-1,2.266243398E-1
1.925148400E0,1.446180940E-1,-9.834641218E-2,2.278460264E-1
1.927463140E0,1.386623234E-1,-9.452861547E-2,2.266243398E-1
1.929777827E0,1.313321590E-1,-8.704573661E-2,2.229592502E-1
1.932092567E0,1.206423342E-1,-8.322793990E-2,2.144073844E-1
1.934407306E0,1.120904684E-1,-7.452336699E-2,2.095206082E-1
1.936721994E0,1.012479365E-1,-6.688777357E-2,1.971509457E-1
1.939036733E0,9.162709117E-2,-6.062658876E-2,1.861557066E-1
1.941351421E0,8.200624585E-2,-5.054761097E-2,1.714953631E-1
1.943666160E0,7.116370648E-2,-4.062134400E-2,1.542389393E-1
1.945980848E0,6.398624927E-2,-2.794626169E-2,1.334701329E-1
1.948295588E0,5.543438718E-2,-1.542389300E-2,1.151447073E-1
1.950610275E0,5.054761097E-2,-2.901524538E-3,9.437590092E-2
1.952925015E0,4.443913698E-2,9.773556143E-3,7.345438004E-2
1.955239702E0,4.077405483E-2,2.733541466E-2,5.268557742E-2
1.957554442E0,3.710897267E-2,4.611896724E-2,3.558185324E-2
1.959869181E0,2.993151546E-2,6.490252167E-2,2.092151903E-2
1.962183869E0,2.504473738E-2,8.490777016E-2,7.482878864E-3
1.964498608E0,1.771457121E-2,1.062874198E-1,1.527118147E-3
1.966813296E0,1.527118124E-2,1.262926757E-1,-4.581354558E-3
1.969128035E0,1.160609815E-2,1.437018216E-1,-7.024743594E-3
1.971442723E0,4.428642802E-3,1.649287641E-1,-5.650337320E-3
1.973757463E0,-4.581354442E-4,1.798945218E-1,-4.428642802E-3
1.976072150E0,-7.635590620E-3,1.922641695E-1,-7.635590737E-4
1.978386890E0,-1.481304597E-2,2.021904439E-1,6.719320081E-3
1.980701577E0,-2.321219631E-2,2.096733153E-1,1.404948719E-2
1.983016317E0,-3.038965166E-2,2.159345001E-1,1.893626526E-2
1.985331004E0,-3.649812192E-2,2.195995897E-1,2.626643144E-2
1.987645744E0,-4.123219103E-2,2.195995897E-1,3.481829539E-2
1.989960483E0,-4.596625641E-2,2.182251811E-1,3.970507160E-2
1.992275171E0,-4.840964451E-2,2.119639963E-1,4.337015375E-2
1.994589910E0,-4.825693369E-2,2.057028115E-1,4.703523964E-2
1.996904598E0,-4.825693369E-2,1.995943487E-1,4.581354558E-2
1.999219338E0,-4.107947648E-2,1.907370538E-1,4.337015375E-2
2.001534025E0,-3.512371704E-2,1.808107942E-1,4.092676565E-2
2.003848765E0,-2.428117767E-2,1.733279079E-1,3.481829539E-2
2.006163452E0,-1.343864016E-2,1.647760421E-1,2.855710872E-2
2.008478192E0,-2.748812549E-3,1.522536725E-1,2.000524849E-2
2.010792879E0,1.160609815E-2,1.411057115E-1,7.788302377E-3
2.013107619E0,2.244863659E-2,1.287360638E-1,-3.359660041E-3
2.015422358E0,3.451287001E-2,1.137702987E-1,-1.191152167E-2
2.017737046E0,4.764608666E-2,1.012479365E-1,-2.305948362E-2
2.020051785E0,5.971032009E-2,8.750387281E-2,-3.405473381E-2
2.022366473E0,7.040014863E-2,7.635590434E-2,-4.504998401E-2
2.024681213E0,8.368607610E-2,6.520794332E-2,-5.619794875E-2
2.026995900E0,9.315420687E-2,5.787777901E-2,-6.719319522E-2
2.029310640E0,9.804098308E-2,5.161659420E-2,-7.574506104E-2
2.031625327E0,1.064401343E-1,5.039490014E-2,-8.063183725E-2
2.033940067E0,1.111742035E-1,4.917320609E-2,-8.811471611E-2
2.036254754E0,1.146865711E-1,5.299099907E-2,-9.300149232E-2
2.038569494E0,1.206423342E-1,5.665608495E-2,-9.773556143E-2
2.040884233E0,1.218640283E-1,6.291726977E-2,-1.001789495E-1
2.043198921E0,1.218640283E-1,6.795676053E-2,-9.895725548E-2
2.045513660E0,1.206423342E-1,7.421794534E-2,-9.651386738E-2
2.047828348E0,1.159082651E-1,7.910472155E-2,-9.284878522E-2
2.050143088E0,1.122431830E-1,8.414421231E-2,-8.918370306E-2
2.052457775E0,1.075091213E-1,8.903098851E-2,-8.292251825E-2
2.054772515E0,1.003316641E-1,9.269607067E-2,-7.803573459E-2
2.057087202E0,9.544488788E-2,9.773556143E-2,-7.314895838E-2
2.059401942E0,8.948912472E-2,9.895725548E-2,-6.948387623E-2
2.061716681E0,8.597674966E-2,1.014006436E-1,-6.215370819E-2
2.064031369E0,7.986827940E-2,1.039967462E-1,-5.726693198E-2
2.066346056E0,7.757759839E-2,1.026223376E-1,-5.360184610E-2
2.068660796E0,7.391251624E-2,1.001789495E-1,-5.238015205E-2
2.070975535E0,7.162184268E-2,9.513945878E-2,-4.871506989E-2
2.073290223E0,7.040014863E-2,8.887827396E-2,-4.871506989E-2
2.075604963E0,7.162184268E-2,7.895200700E-2,-5.253286287E-2
2.077919650E0,7.406523079E-2,6.642963737E-2,-5.864133686E-2
2.080234390E0,7.528692484E-2,5.039490014E-2,-6.612421572E-2
2.082549077E0,7.895200700E-2,3.161134571E-2,-7.223268598E-2
2.084863817E0,8.368607610E-2,9.315420873E-3,-8.215895295E-2
2.087178504E0,9.330692142E-2,-1.435491070E-2,-8.964183182E-2
2.089493244E0,1.053711548E-1,-3.924693540E-2,-9.941539168E-2
2.091807983E0,1.209477559E-1,-6.413896382E-2,-1.068982705E-1
2.094122671E0,1.342336833E-1,-8.903098851E-2,-1.131594554E-1
2.096437410E0,1.510319859E-1,-1.139230132E-1,-1.217113137E-1
2.098752098E0,1.666085869E-1,-1.351499557E-1,-1.279724985E-1
2.101066838E0,1.823379099E-1,-1.574458778E-1,-1.353026628E-1
2.103381525E0,2.026485801E-1,-1.774511337E-1,-1.401894391E-1
2.105696265E0,2.231119573E-1,-1.936385781E-1,-1.452289373E-1
2.108010952E0,2.446443290E-1,-2.073826492E-1,-1.501157135E-1
2.110325692E0,2.651077211E-1,-2.185306102E-1,-1.550024897E-1
2.112640431E0,2.878617644E-1,-2.284568697E-1,-1.598892659E-1
2.114955119E0,3.081724346E-1,-2.347180545E-1,-1.623326540E-1
2.117269858E0,3.298575282E-1,-2.396048307E-1,-1.647760421E-1
2.119584546E0,3.489464819E-1,-2.458660156E-1,-1.670667231E-1
2.121899285E0,3.681881726E-1,-2.496838123E-1,-1.695101112E-1
2.124213973E0,3.837648034E-1,-2.521272004E-1,-1.731752008E-1
2.126528713E0,4.040754735E-1,-2.545706034E-1,-1.743968874E-1
2.128843400E0,4.196520746E-1,-2.545706034E-1,-1.780619770E-1
2.131158140E0,4.352286756E-1,-2.483094037E-1,-1.779092699E-1
2.133472827E0,4.485146105E-1,-2.396048307E-1,-1.766875684E-1
2.135787567E0,4.592044353E-1,-2.296785712E-1,-1.753131598E-1
2.138102306E0,4.663818777E-1,-2.134911120E-1,-1.740914732E-1
2.140416994E0,4.723376334E-1,-1.934858710E-1,-1.702736765E-1
2.142731733E0,4.746283293E-1,-1.724116355E-1,-1.676775664E-1
2.145046421E0,4.770717025E-1,-1.511846930E-1,-1.663031727E-1
2.147361160E0,4.746283293E-1,-1.287360638E-1,-1.638597846E-1
2.149675848E0,4.685198367E-1,-1.062874198E-1,-1.612636745E-1
2.151990588E0,4.601207078E-1,-8.399149776E-2,-1.575985998E-1
2.154305275E0,4.480564594E-1,-6.398624927E-2,-1.550024897E-1
2.156620015E0,4.312581718E-1,-4.398100078E-2,-1.513374150E-1
2.158934702E0,4.144598544E-1,-2.657185495E-2,-1.488940120E-1
2.161249442E0,3.939964771E-1,-9.162709117E-3,-1.464506239E-1
2.163564181E0,3.687990308E-1,7.024743594E-3,-1.440072358E-1
2.165878869E0,3.423798978E-1,2.199050039E-2,-1.415638477E-1
2.168193608E0,3.124483824E-1,3.817795217E-2,-1.391204596E-1
2.170508296E0,2.823641598E-1,5.436540768E-2,-1.366770715E-1
2.172823035E0,2.512109280E-1,6.810946763E-2,-1.354553849E-1
2.175137723E0,2.176143378E-1,7.941014320E-2,-1.378987730E-1
2.177452463E0,1.827960461E-1,8.811471611E-2,-1.417165697E-1
2.179767150E0,1.469087601E-1,9.315420687E-2,-1.478250325E-1
2.182081890E0,1.108687744E-1,9.315420687E-2,-1.553079188E-1
2.184396629E0,7.498150319E-2,8.948912472E-2,-1.640124917E-1
2.186711317E0,4.016320780E-2,8.078455180E-2,-1.776038408E-1
2.189026056E0,6.566607859E-3,6.719319522E-2,-1.925695986E-1
2.191340744E0,-2.214321308E-2,4.856235534E-2,-2.073826492E-1
2.193655483E0,-4.856235534E-2,2.870982140E-2,-2.221956849E-1
2.195970171E0,-7.116370648E-2,6.413896102E-3,-2.371614426E-1
2.198284910E0,-8.796200156E-2,-1.847812906E-2,-2.507528067E-1
2.200599598E0,-1.010952219E-1,-4.337015375E-2,-2.643441558E-1
2.202914338E0,-1.107160673E-1,-6.688777357E-2,-2.768665254E-1
2.205229025E0,-1.154501289E-1,-8.933641016E-2,-2.904578745E-1
2.207543765E0,-1.154501289E-1,-1.130067408E-1,-3.003841341E-1
2.209858504E0,-1.154501289E-1,-1.340809762E-1,-3.077143133E-1
2.212173192E0,-1.068982705E-1,-1.527118087E-1,-3.176405728E-1
2.214487931E0,-9.743013978E-2,-1.701209545E-1,-3.261924386E-1
2.216789702E0,-7.941014320E-2,-1.889045089E-1,-3.312319219E-1
2.219117358E0,-5.650337040E-2,-2.050919682E-1,-3.336753249E-1
2.221432046E0,-3.252761811E-2,-2.188360244E-1,-3.348970115E-1
2.223733869E0,-6.108472589E-3,-2.275405973E-1,-3.336753249E-1
2.226061473E0,2.504473738E-2,-2.324273884E-1,-3.323009014E-1
2.228376213E0,5.864133686E-2,-2.338017821E-1,-3.248180151E-1
2.230690900E0,9.101624042E-2,-2.289150059E-1,-3.199312389E-1
2.233005640E0,1.281252056E-1,-2.151709497E-1,-3.122956753E-1
2.235320379E0,1.592784226E-1,-2.015796006E-1,-3.035911024E-1
2.237635067E0,1.939440072E-1,-1.815743446E-1,-2.948864996E-1
2.239949806E0,2.250972092E-1,-1.580567211E-1,-2.872509360E-1
2.242264494E0,2.501419485E-1,-1.293469071E-1,-2.773246467E-1
2.244579233E0,2.716743052E-1,-1.007898003E-1,-2.684673667E-1
2.246893921E0,2.884726226E-1,-6.841489673E-2,-2.573194206E-1
2.249208660E0,2.991624475E-1,-3.481829539E-2,-2.486148328E-1
2.251523348E0,3.014531136E-1,-1.221694518E-3,-2.435753495E-1
2.253838088E0,3.002314270E-1,3.115320951E-2,-2.359397560E-1
2.256152827E0,2.929012477E-1,6.108472496E-2,-2.310529798E-1
2.258454598E0,2.809897363E-1,8.597674966E-2,-2.260134816E-1
2.260782254E0,2.617480457E-1,1.122431830E-1,-2.211267054E-1
2.263096942E0,2.388412803E-1,1.359135211E-1,-2.148655206E-1
2.265398765E0,2.101314515E-1,1.559187621E-1,-2.112004459E-1
2.267726369E0,1.788255423E-1,1.733279079E-1,-2.075353563E-1
2.270041108E0,1.452289373E-1,1.882936656E-1,-2.038702667E-1
2.272342931E0,1.093416587E-1,2.020377368E-1,-1.989834905E-1
2.274670535E0,7.207997888E-2,2.082989216E-1,-1.979145110E-1
2.276985223E0,3.741439432E-2,2.144073844E-1,-1.954711229E-1
2.279299963E0,-9.162708884E-4,2.144073844E-1,-1.968455315E-1
2.281614650E0,-3.817795217E-2,2.107423097E-1,-1.994416267E-1
2.283929390E0,-7.040014863E-2,2.020377368E-1,-2.032594234E-1
2.286244129E0,-1.039967462E-1,1.884463727E-1,-2.095206082E-1
2.288558817E0,-1.339282542E-1,1.722589284E-1,-2.170034945E-1
2.290873556E0,-1.601946950E-1,1.510319859E-1,-2.257080674E-1
2.293188244E0,-1.841704547E-1,1.261399537E-1,-2.345653474E-1
2.295502983E0,-2.032594234E-1,9.987352788E-2,-2.457133085E-1
2.297817671E0,-2.188360244E-1,7.498150319E-2,-2.531961799E-1
2.300132410E0,-2.307475507E-1,5.146388337E-2,-2.606790662E-1
2.302447150E0,-2.391466945E-1,2.901524492E-2,-2.693836391E-1
2.304761838E0,-2.391466945E-1,1.160609815E-2,-2.756448388E-1
2.307076577E0,-2.402156889E-1,-2.137965523E-3,-2.768665254E-1
2.309391265E0,-2.389939874E-1,-8.399149403E-3,-2.744231224E-1
2.311706004E0,-2.342599183E-1,-1.588202827E-2,-2.732014358E-1
2.314020692E0,-2.270824611E-1,-1.710372418E-2,-2.683146596E-1
2.316335431E0,-2.199050188E-1,-1.466033421E-2,-2.597627938E-1
2.318650119E0,-2.090624720E-1,-9.773556143E-3,-2.498365343E-1
2.320964858E0,-2.018850148E-1,-4.734066315E-3,-2.388412803E-1
2.323279598E0,-1.910424829E-1,2.596100792E-3,-2.240282297E-1
2.325594285E0,-1.826433241E-1,1.130067464E-2,-2.141019702E-1
2.327909025E0,-1.718007922E-1,2.122694254E-2,-2.017323077E-1
2.330223713E0,-1.646233350E-1,3.237490356E-2,-1.870719790E-1
2.332538452E0,-1.598892659E-1,4.474456236E-2,-1.722589284E-1
2.334853140E0,-1.514901221E-1,5.955760926E-2,-1.586675793E-1
2.337167879E0,-1.490467340E-1,7.192726433E-2,-1.462979168E-1
2.339482567E0,-1.443126649E-1,8.933641016E-2,-1.339282542E-1
2.341797306E0,-1.383569092E-1,1.068982705E-1,-1.240019947E-1
2.344112046E0,-1.359135211E-1,1.230857223E-1,-1.130067408E-1
2.346426733E0,-1.348445266E-1,1.417165697E-1,-1.067455560E-1
2.348741473E0,-1.348445266E-1,1.591257155E-1,-9.804098308E-2
2.351056160E0,-1.311794519E-1,1.740914732E-1,-9.071081877E-2
2.353370900E0,-1.301104724E-1,1.864611208E-1,-8.567132801E-2
2.355685588E0,-1.313321590E-1,1.989834905E-1,-8.322793990E-2
2.358000327E0,-1.313321590E-1,2.064663768E-1,-7.818844914E-2
2.360315015E0,-1.313321590E-1,2.113531530E-1,-7.574506104E-2
2.362629754E0,-1.301104724E-1,2.200577259E-1,-7.452336699E-2
2.364944442E0,-1.313321590E-1,2.226538211E-1,-7.574506104E-2
2.367259181E0,-1.288887709E-1,2.226538211E-1,-7.452336699E-2
2.369573921E0,-1.241547018E-1,2.200577259E-1,-7.330167294E-2
2.371888608E0,-1.229330078E-1,2.163926363E-1,-7.574506104E-2
2.374203348E0,-1.180462316E-1,2.050919682E-1,-7.818844914E-2
2.376518035E0,-1.120904684E-1,1.951656938E-1,-7.818844914E-2
2.378832775E0,-1.096470803E-1,1.801999360E-1,-7.956285775E-2
2.381147463E0,-1.012479365E-1,1.627907902E-1,-8.200624585E-2
2.383462202E0,-9.758284688E-2,1.429382563E-1,-8.582404256E-2
2.385776942E0,-9.162709117E-2,1.204896197E-1,-9.315420687E-2
2.388091629E0,-8.551861346E-2,9.666658193E-2,-9.697200358E-2
2.390406317E0,-7.941014320E-2,7.177454978E-2,-1.020114943E-1
2.392721056E0,-7.345438004E-2,4.428642616E-2,-1.032331884E-1
2.395035796E0,-6.612421572E-2,1.435491070E-2,-1.070509851E-1
2.397350483E0,-5.772506446E-2,-1.298050396E-2,-1.072036922E-1
2.399665223E0,-4.917320609E-2,-4.657710344E-2,-1.097997949E-1
2.401979910E0,-4.321744293E-2,-7.788302749E-2,-1.097997949E-1
2.404294650E0,-3.710897267E-2,-1.076618284E-1,-1.099525094E-1
2.406609338E0,-2.977880463E-2,-1.401894391E-1,-1.101052165E-1
2.408924077E0,-2.489202656E-2,-1.713426560E-1,-1.127013192E-1
2.411238817E0,-2.015795931E-2,-2.024958730E-1,-1.140757278E-1
2.413553504E0,-1.649287529E-2,-2.322746664E-1,-1.189625040E-1
2.415868244E0,-1.160609815E-2,-2.609844804E-1,-1.215586066E-1
2.418182931E0,-7.941014133E-3,-2.834331393E-1,-1.265980899E-1
2.420497671E0,-6.719320081E-3,-3.045073450E-1,-1.340809762E-1
2.422812358E0,-4.275931045E-3,-3.206948042E-1,-1.377460510E-1
2.425127098E0,-6.108472589E-4,-3.332171738E-1,-1.440072358E-1
2.427441785E0,2.901524538E-3,-3.381039500E-1,-1.513374150E-1
2.429756525E0,6.566607859E-3,-3.393256664E-1,-1.586675793E-1
2.432071213E0,1.007897966E-2,-3.330644667E-1,-1.647760421E-1
2.434385952E0,1.603474095E-2,-3.280249834E-1,-1.708845198E-1
2.436700692E0,1.954711229E-2,-3.155026138E-1,-1.756185889E-1
2.439015379E0,2.428117767E-2,-3.005368412E-1,-1.780619770E-1
2.441330119E0,3.023693897E-2,-2.831276953E-1,-1.805053651E-1
2.443644806E0,3.390202299E-2,-2.606790662E-1,-1.815743446E-1
2.445959546E0,3.497100621E-2,-2.382304370E-1,-1.838650256E-1
2.448274233E0,3.603998944E-2,-2.157817930E-1,-1.826433241E-1
2.450588973E0,3.481829539E-2,-1.896680743E-1,-1.800472289E-1
2.452903713E0,3.237490356E-2,-1.635543555E-1,-1.786728203E-1
2.455218400E0,3.237490356E-2,-1.372879148E-1,-1.748550236E-1
2.457533140E0,3.115320951E-2,-1.111742035E-1,-1.711899489E-1
2.459847827E0,2.504473738E-2,-8.383878320E-2,-1.661504507E-1
2.462162567E0,1.893626526E-2,-6.139015034E-2,-1.598892659E-1
2.464477254E0,1.771457121E-2,-3.894151375E-2,-1.524063945E-1
2.466791994E0,1.404948719E-2,-2.031067200E-2,-1.462979168E-1
2.469106681E0,1.404948719E-2,-4.123218823E-3,-1.400367320E-1
2.471421421E0,1.404948719E-2,9.468132630E-3,-1.288887709E-1
2.473736160E0,1.649287529E-2,2.321219631E-2,-1.178935245E-1
2.476050848E0,2.000524849E-2,3.191677108E-2,-1.079672500E-1
2.478365588E0,2.122694254E-2,3.680354729E-2,-9.575030953E-2
2.480680275E0,2.611372061E-2,3.924693540E-2,-8.704573661E-2
2.482995015E0,2.611372061E-2,3.787253052E-2,-7.727217674E-2
2.485309702E0,2.977880463E-2,3.542914242E-2,-6.872031838E-2
2.487624442E0,3.222219273E-2,2.672456764E-2,-6.505523622E-2
2.489939129E0,3.451287001E-2,2.046338283E-2,-6.261184067E-2
2.492253869E0,3.695625812E-2,1.298050396E-2,-6.016845629E-2
2.494568608E0,3.817795217E-2,5.497625098E-3,-6.261184067E-2
2.496883296E0,4.062134400E-2,-3.359660041E-3,-6.154286116E-2
2.499198035E0,3.939964995E-2,-1.206423342E-2,-6.154286116E-2
2.501512723E0,4.306473210E-2,-2.076880634E-2,-6.276455522E-2
2.503827463E0,4.306473210E-2,-2.825168520E-2,-6.276455522E-2
2.506142150E0,4.306473210E-2,-3.436015919E-2,-6.398624927E-2
2.508456890E0,4.306473210E-2,-4.184303805E-2,-6.536065787E-2
2.510771577E0,4.672981426E-2,-5.070032179E-2,-6.413896382E-2
2.513086317E0,4.917320609E-2,-5.680879578E-2,-6.536065787E-2
2.515401004E0,5.390727147E-2,-6.551336497E-2,-6.780404598E-2
2.517715744E0,6.001574174E-2,-7.437065244E-2,-7.024743408E-2
2.520030483E0,6.841489673E-2,-8.429691941E-2,-7.528692484E-2
2.522345171E0,7.803573459E-2,-9.162709117E-2,-8.017370105E-2
2.524659910E0,8.872556686E-2,-1.029277667E-1,-8.383878320E-2
2.526974598E0,9.956810623E-2,-1.104106456E-1,-8.872556686E-2
2.529289338E0,1.104106456E-1,-1.165191159E-1,-9.239064902E-2
2.531604077E0,1.223221645E-1,-1.215586066E-1,-9.483403713E-2
2.533918765E0,1.343863904E-1,-1.203369126E-1,-9.727742523E-2
2.536233504E0,1.462979168E-1,-1.203369126E-1,-9.972081333E-2
2.538548192E0,1.571404636E-1,-1.177408099E-1,-9.727742523E-2
2.540862931E0,1.678302884E-1,-1.152974218E-1,-9.590301663E-2
2.543177619E0,1.786728203E-1,-1.140757278E-1,-9.590301663E-2
2.545492358E0,1.882936656E-1,-1.091889441E-1,-9.223793447E-2
2.547807046E0,1.954711229E-1,-1.041494608E-1,-8.842013776E-2
2.550121785E0,2.038702667E-1,-9.926267713E-2,-8.231166750E-2
2.552436473E0,2.086043358E-1,-9.300149232E-2,-7.849387079E-2
2.554751213E0,2.157817930E-1,-8.429691941E-2,-6.994201243E-2
2.557065952E0,2.194468826E-1,-7.941014320E-2,-6.245913357E-2
2.559380640E0,2.217375487E-1,-7.070557028E-2,-5.268557742E-2
2.561695379E0,2.194468826E-1,-6.077930331E-2,-4.535540938E-2
2.564010067E0,2.145601064E-1,-4.963133857E-2,-3.665083647E-2
2.566324806E0,2.110477239E-1,-3.833066672E-2,-2.687728032E-2
2.568639494E0,2.037175596E-1,-2.977880463E-2,-1.817270555E-2
2.570954233E0,1.965401024E-1,-1.847812906E-2,-1.084253844E-2
2.573268921E0,1.858502775E-1,-9.773556143E-3,-5.955760833E-3
2.575583660E0,1.713426560E-1,-1.068982761E-3,-1.068982761E-3
2.577898400E0,1.545443535E-1,7.635590620E-3,1.527118147E-4
2.580213088E0,1.438545287E-1,1.511846948E-2,2.596100792E-3
2.582527827E0,1.305686086E-1,2.260134928E-2,2.596100792E-3
2.584842515E0,1.246128380E-1,2.626643144E-2,1.374406274E-3
2.587157254E0,1.174353883E-1,3.252761811E-2,1.527118147E-4
2.589471942E0,1.102579311E-1,3.634541109E-2,-2.290677279E-3
2.591786681E0,1.078145429E-1,3.756710514E-2,1.527118147E-4
2.594101369E0,1.065928489E-1,4.001049697E-2,-1.068982761E-3
2.596416108E0,1.065928489E-1,4.123219103E-2,-2.290677279E-3
2.598730848E0,1.053711548E-1,4.123219103E-2,-2.290677279E-3
2.601045535E0,1.065928489E-1,4.001049697E-2,-4.734066315E-3
2.603360275E0,1.078145429E-1,3.878879920E-2,-5.955760833E-3
2.605674963E0,1.101052165E-1,3.634541109E-2,-1.206423342E-2
2.607989702E0,1.125486046E-1,3.130592033E-2,-1.328592747E-2
2.610304442E0,1.174353883E-1,2.382304333E-2,-1.817270555E-2
2.612619129E0,1.221694499E-1,1.267508045E-2,-2.076880634E-2
2.614933869E0,1.305686086E-1,2.748812549E-3,-2.076880634E-2
2.617248556E0,1.414111406E-1,-9.773556143E-3,-2.076880634E-2
2.619563296E0,1.557660550E-1,-2.596100792E-2,-2.199050039E-2
2.621877983E0,1.727170646E-1,-4.459185153E-2,-2.076880634E-2
2.624192723E0,1.930277348E-1,-6.215370819E-2,-1.588202827E-2
2.626507410E0,2.134911120E-1,-7.834116369E-2,-9.773556143E-3
2.628822150E0,2.339545041E-1,-9.590301663E-2,-2.443389036E-3
2.631136838E0,2.556395829E-1,-1.108687744E-1,7.330167107E-3
2.633451577E0,2.771719396E-1,-1.284306347E-1,1.954711229E-2
2.635766317E0,2.964136302E-1,-1.421747059E-1,3.069507517E-2
2.638081004E0,3.133646548E-1,-1.571404636E-1,4.413371533E-2
2.640395744E0,3.264978528E-1,-1.698155403E-1,6.123743951E-2
2.642710431E0,3.385621011E-1,-1.798945218E-1,7.589777559E-2
2.645025171E0,3.494046330E-1,-1.885990947E-1,9.193251282E-2
2.647339858E0,3.567348123E-1,-1.936385781E-1,1.065928489E-1
2.649654598E0,3.614688516E-1,-1.988307834E-1,1.238492802E-1
2.651969285E0,3.616215885E-1,-2.012741715E-1,1.397313178E-1
2.654284025E0,3.640649617E-1,-2.014268786E-1,1.543916464E-1
2.656598765E0,3.616215885E-1,-1.989834905E-1,1.704263836E-1
2.658913452E0,3.581092060E-1,-1.991362125E-1,1.850867122E-1
2.661228192E0,3.521534503E-1,-1.954711229E-1,1.973036677E-1
2.663542879E0,3.461976945E-1,-1.904316396E-1,2.084516287E-1
2.665857619E0,3.437542915E-1,-1.855448484E-1,2.182251811E-1
2.668172306E0,3.413109183E-1,-1.806580722E-1,2.255553454E-1
2.670487046E0,3.365768492E-1,-1.756185889E-1,2.292204350E-1
2.672801733E0,3.353551328E-1,-1.731752008E-1,2.318165302E-1
2.675116473E0,3.365768492E-1,-1.731752008E-1,2.281514555E-1
2.677431213E0,3.425326049E-1,-1.743968874E-1,2.218902707E-1
2.679745900E0,3.509317636E-1,-1.742441803E-1,2.145601064E-1
2.682060640E0,3.628432751E-1,-1.766875684E-1,2.035648525E-1
2.684375327E0,3.796415627E-1,-1.817270666E-1,1.913478971E-1
2.686690067E0,3.975088596E-1,-1.853921413E-1,1.779092699E-1
2.689004754E0,4.204156399E-1,-1.915006191E-1,1.669140160E-1
2.691319494E0,4.430169761E-1,-1.951656938E-1,1.510319859E-1
2.693634233E0,4.669927359E-1,-1.963873953E-1,1.412584335E-1
2.695948921E0,4.885250926E-1,-1.951656938E-1,1.302631795E-1
2.698263660E0,5.125008225E-1,-1.925695986E-1,1.204896197E-1
2.700578348E0,5.352548957E-1,-1.899735034E-1,1.120904684E-1
2.702893088E0,5.520532131E-1,-1.788255423E-1,1.023169160E-1
2.705207775E0,5.711421967E-1,-1.724116355E-1,9.254335612E-2
2.707522515E0,5.854970813E-1,-1.600419879E-1,8.536590636E-2
2.709837202E0,5.937435627E-1,-1.487413049E-1,7.925742865E-2
2.712151942E0,5.984776020E-1,-1.337755471E-1,7.314895838E-2
2.714466681E0,6.009209752E-1,-1.175880954E-1,7.207997888E-2
2.716781369E0,5.960342288E-1,-9.758284688E-2,7.207997888E-2
2.719096108E0,5.888567567E-1,-7.635590434E-2,7.467607409E-2
2.721410796E0,5.827482939E-1,-5.405998230E-2,7.834116369E-2
2.723725535E0,5.706840754E-1,-2.916795574E-2,8.460234851E-2
2.726040223E0,5.563291311E-1,-6.719320081E-3,9.330692142E-2
2.728354963E0,5.383091569E-1,1.450762246E-2,1.006370857E-1
2.730669702E0,5.190674663E-1,3.558185324E-2,1.091889441E-1
2.732984390E0,5.010474920E-1,5.421269313E-2,1.166718230E-1
2.735299129E0,4.830274582E-1,6.673506647E-2,1.227803007E-1
2.737613817E0,4.639385045E-1,7.543963939E-2,1.276670843E-1
2.739928556E0,4.434750974E-1,8.536590636E-2,1.337755471E-1
2.742243244E0,4.243861437E-1,9.040539712E-2,1.386623234E-1
2.744557983E0,4.063661397E-1,9.651386738E-2,1.411057115E-1
2.746872723E0,3.932329118E-1,1.003316641E-1,1.411057115E-1
2.749187410E0,3.775036037E-1,1.055238619E-1,1.386623234E-1
2.751502150E0,3.668137789E-1,1.091889441E-1,1.360662282E-1
2.753816838E0,3.607053161E-1,1.142284349E-1,1.336228400E-1
2.756131577E0,3.547495604E-1,1.217113137E-1,1.275143623E-1
2.758446265E0,3.547495604E-1,1.279724985E-1,1.214058921E-1
2.760761004E0,3.558185399E-1,1.354553849E-1,1.128540337E-1
2.763075692E0,3.617742956E-1,1.479777545E-1,1.032331884E-1
2.765390431E0,3.689517379E-1,1.617218107E-1,9.590301663E-2
2.767705171E0,3.784198761E-1,1.792836636E-1,8.979454637E-2
2.770019858E0,3.939964771E-1,1.942494214E-1,8.383878320E-2
2.772334598E0,4.095730782E-1,2.079934925E-1,8.154810965E-2
2.774649285E0,4.251496792E-1,2.191414535E-1,8.032641560E-2
2.776964025E0,4.417952895E-1,2.290677279E-1,8.170082420E-2
2.779278713E0,4.610369802E-1,2.328855246E-1,8.536590636E-2
2.781593452E0,4.801259339E-1,2.365505993E-1,8.918370306E-2
2.783908140E0,5.041016936E-1,2.365505993E-1,9.284878522E-2
2.786222879E0,5.292991400E-1,2.365505993E-1,9.788827598E-2
2.788537619E0,5.532749295E-1,2.339545041E-1,1.064401343E-1
2.790852306E0,5.772506595E-1,2.327328026E-1,1.114796251E-1
2.793167046E0,6.048914790E-1,2.301367074E-1,1.177408099E-1
2.795481733E0,6.360446811E-1,2.313583940E-1,1.214058921E-1
2.797796473E0,6.684195995E-1,2.351761907E-1,1.240019947E-1
2.800111160E0,6.971294284E-1,2.400629669E-1,1.278197914E-1
2.802425900E0,7.295043468E-1,2.475458533E-1,1.304158866E-1
2.804740588E0,7.643226385E-1,2.574721277E-1,1.354553849E-1
2.807055327E0,7.930324674E-1,2.661767006E-1,1.366770715E-1
2.809370067E0,8.229639530E-1,2.773246467E-1,1.429382563E-1
2.811684754E0,8.481613994E-1,2.884726226E-1,1.455343664E-1
2.813999494E0,8.696937561E-1,3.009949923E-1,1.517955512E-1
2.816314181E0,8.852704167E-1,3.133646548E-1,1.580567211E-1
2.818628921E0,8.971819282E-1,3.258870244E-1,1.643179059E-1
2.820943608E0,9.055810571E-1,3.394783735E-1,1.704263836E-1
2.823258348E0,9.068027735E-1,3.494046330E-1,1.803526580E-1
2.825573088E0,9.068027735E-1,3.544441164E-1,1.852394342E-1
2.827887775E0,8.996253014E-1,3.568875194E-1,1.913478971E-1
2.830202515E0,8.852704167E-1,3.542914093E-1,1.998997629E-1
2.832517202E0,8.696937561E-1,3.468085229E-1,2.035648525E-1
2.834831942E0,8.528954983E-1,3.356605768E-1,2.070772201E-1
2.837146629E0,8.289197087E-1,3.206948042E-1,2.093679011E-1
2.839461369E0,8.038749695E-1,3.019112647E-1,2.105895877E-1
2.841776108E0,7.776085734E-1,2.820587158E-1,2.102841735E-1
2.844090796E0,7.464553714E-1,2.571666837E-1,2.052446753E-1
2.846405535E0,7.140804529E-1,2.309002578E-1,2.002051920E-1
2.848720223E0,6.843016148E-1,2.023431510E-1,1.901262105E-1
2.851034963E0,6.555918455E-1,1.663031727E-1,1.788255423E-1
2.853349650E0,6.256603003E-1,1.314848661E-1,1.626380831E-1
2.855664390E0,5.957288146E-1,9.651386738E-2,1.427855492E-1
2.857979129E0,5.705313683E-1,6.169557199E-2,1.180462316E-1
2.860293817E0,5.442649126E-1,2.702999115E-2,9.208522737E-2
2.862608556E0,5.227325559E-1,-3.970507067E-3,6.123743951E-2
2.864923244E0,4.987567961E-1,-3.374931216E-2,3.283303976E-2
2.867237983E0,4.795151055E-1,-6.108472496E-2,7.635590737E-4
2.869552671E0,4.579827189E-1,-8.338065445E-2,-3.252761811E-2
2.871867410E0,4.375193417E-1,-1.006370857E-1,-6.322269142E-2
2.874182098E0,4.172086716E-1,-1.166718230E-1,-9.162709117E-2
2.876496838E0,3.991886973E-1,-1.290414780E-1,-1.174353883E-1
2.878811577E0,3.799470067E-1,-1.375933439E-1,-1.444653720E-1
2.881126265E0,3.619270027E-1,-1.424801201E-1,-1.690519750E-1
2.883441004E0,3.439069986E-1,-1.423274130E-1,-1.887518018E-1
2.885755692E0,3.199312389E-1,-1.397313178E-1,-2.060082406E-1
2.888070431E0,2.982461751E-1,-1.308740228E-1,-2.232646793E-1
2.890385119E0,2.754921019E-1,-1.183516532E-1,-2.342599183E-1
2.892699858E0,2.538070381E-1,-1.009425074E-1,-2.428117841E-1
2.895014546E0,2.309002578E-1,-8.215895295E-2,-2.476985604E-1
2.897329285E0,2.057028115E-1,-5.726693198E-2,-2.513636351E-1
2.899644025E0,1.805053651E-1,-3.100049868E-2,-2.501419485E-1
2.901958713E0,1.565296054E-1,-2.290677279E-3,-2.499892414E-1
2.904273452E0,1.299577504E-1,3.130592033E-2,-2.451024652E-1
2.906588140E0,1.035386100E-1,6.612421572E-2,-2.363978922E-1
2.908902879E0,8.078455180E-2,1.010952219E-1,-2.289150059E-1
2.911217567E0,5.436540768E-2,1.397313178E-1,-2.189887464E-1
2.913532306E0,3.023693897E-2,1.733279079E-1,-2.092151791E-1
2.915847046E0,8.704573847E-3,2.082989216E-1,-1.992889196E-1
2.918161733E0,-1.053711493E-2,2.418955117E-1,-1.869192570E-1
2.920476473E0,-3.100049868E-2,2.728960216E-1,-1.757712960E-1
2.922791160E0,-4.779879749E-2,3.016058207E-1,-1.646233350E-1
2.925105900E0,-6.230641901E-2,3.313846290E-1,-1.560714692E-1
2.927420588E0,-7.437065244E-2,3.574983478E-1,-1.437018216E-1
2.929735327E0,-8.399149776E-2,3.811686933E-1,-1.362189353E-1
2.932050015E0,-8.994726092E-2,4.011739492E-1,-1.264453828E-1
2.934364754E0,-9.239064902E-2,4.198047817E-1,-1.177408099E-1
2.936679494E0,-9.116895497E-2,4.372139275E-1,-1.102579311E-1
2.938994181E0,-8.521319181E-2,4.471401870E-1,-1.017060652E-1
2.941308921E0,-7.803573459E-2,4.595098495E-1,-9.177979827E-2
2.943623608E0,-6.963659078E-2,4.643966258E-1,-8.185353130E-2
2.945938348E0,-5.772506446E-2,4.706578255E-1,-7.330167294E-2
2.948253035E0,-4.092676565E-2,4.743228853E-1,-6.337540597E-2
2.950567775E0,-2.764083818E-2,4.743228853E-1,-5.100574717E-2
2.952882515E0,-1.206423342E-2,4.729484916E-1,-4.123219103E-2
2.955197202E0,7.177455351E-3,4.666872919E-1,-3.145863488E-2
2.957511942E0,2.641914412E-2,4.566083252E-1,-2.031067200E-2
2.959826629E0,4.443913698E-2,4.440859556E-1,-9.315420873E-3
2.962141369E0,6.597150117E-2,4.278984964E-1,-7.635590737E-4
2.964456056E0,8.765657991E-2,4.052971601E-1,6.566607859E-3
2.966770796E0,1.117850468E-1,3.804051280E-1,1.634016447E-2
2.969085535E0,1.345391124E-1,3.541387022E-1,2.367033064E-2
2.971400223E0,1.550024897E-1,3.280249834E-1,2.977880463E-2
2.973714963E0,1.779092699E-1,2.979407609E-1,3.710897267E-2
2.976029650E0,2.020377368E-1,2.680092454E-1,4.306473210E-2
2.978344390E0,2.225011140E-1,2.380777150E-1,4.795150831E-2
2.980659077E0,2.405211031E-1,2.156290859E-1,5.405998230E-2
2.982973817E0,2.597627938E-1,1.919587553E-1,5.772506446E-2
2.985288556E0,2.753393948E-1,1.719534993E-1,6.749862432E-2
2.987603244E0,2.898470163E-1,1.543916464E-1,6.994201243E-2
2.989917983E0,3.006895781E-1,1.345391124E-1,7.467607409E-2
2.992232671E0,3.115321100E-1,1.181989461E-1,8.078455180E-2
2.994547410E0,3.211529553E-1,9.941539168E-2,8.322793990E-2
2.996862098E0,3.260397315E-1,7.818844914E-2,8.444963396E-2
2.999176838E0,3.332171738E-1,5.696150661E-2,8.429691941E-2
3.001491525E0,3.356605768E-1,3.833066672E-2,8.429691941E-2
3.003806265E0,3.405473530E-1,1.710372418E-2,8.536590636E-2
3.006121004E0,3.442124426E-1,-3.054236295E-4,8.414421231E-2
3.008435692E0,3.501681983E-1,-1.527118124E-2,8.521319181E-2
3.010750431E0,3.538332880E-1,-2.657185495E-2,8.765657991E-2
3.013065119E0,3.610107303E-1,-3.405473381E-2,9.132166207E-2
3.015379858E0,3.646758199E-1,-3.787253052E-2,9.376505762E-2
3.017694546E0,3.671191931E-1,-3.542914242E-2,1.000262350E-1
3.020009285E0,3.718532622E-1,-3.038965166E-2,1.097997949E-1
3.022324025E0,3.742966652E-1,-2.428117767E-2,1.195733473E-1
3.024638713E0,3.755183518E-1,-1.557660475E-2,1.319430023E-1
3.026953452E0,3.767400384E-1,-5.650337320E-3,1.406475753E-1
3.029268140E0,3.742966652E-1,4.275931045E-3,1.504211426E-1
3.031582879E0,3.706315756E-1,9.162709117E-3,1.614163816E-1
3.033897567E0,3.671191931E-1,1.908897609E-2,1.725643575E-1
3.036212306E0,3.622324169E-1,2.657185495E-2,1.811162084E-1
3.038527046E0,3.562766612E-1,3.771981969E-2,1.934858710E-1
3.040841733E0,3.515425920E-1,4.520269856E-2,2.032594234E-1
3.043156473E0,3.431434333E-1,5.131116882E-2,2.130329758E-1
3.045471160E0,3.359659910E-1,5.757235363E-2,2.229592502E-1
3.047785900E0,3.310792148E-1,6.490252167E-2,2.315111160E-1
3.050100588E0,3.251234591E-1,7.360709459E-2,2.388412803E-1
3.052415327E0,3.144336343E-1,7.986827940E-2,2.463241518E-1
3.054730067E0,3.035911024E-1,8.735115826E-2,2.487675399E-1
3.057044754E0,2.927485406E-1,9.223793447E-2,2.524326444E-1
3.059359494E0,2.796153426E-1,9.483403713E-2,2.510582209E-1
3.061674181E0,2.663294077E-1,9.223793447E-2,2.461714447E-1
3.063988921E0,2.556395829E-1,8.735115826E-2,2.425063550E-1
3.066303608E0,2.412846684E-1,8.246438205E-2,2.350234836E-1
3.068618348E0,2.292204350E-1,7.498150319E-2,2.275405973E-1
3.070933088E0,2.148655206E-1,6.627693027E-2,2.177670449E-1
3.073247775E0,2.017323077E-1,6.139015034E-2,2.115058601E-1
3.075562515E0,1.896680743E-1,5.635065958E-2,2.028012872E-1
3.077877202E0,1.765348613E-1,5.146388337E-2,1.930277348E-1
3.080191942E0,1.644706279E-1,4.902049154E-2,1.855448484E-1
3.082506629E0,1.513374150E-1,4.535540938E-2,1.757712960E-1
3.084821369E0,1.380514801E-1,4.291202128E-2,1.658450365E-1
3.087136108E0,1.249182671E-1,4.413371533E-2,1.548497826E-1
3.089450796E0,1.128540337E-1,4.428642616E-2,1.461452097E-1
3.091765535E0,1.020114943E-1,4.810422286E-2,1.351499557E-1
3.094080223E0,9.239064902E-2,5.054761097E-2,1.241547018E-1
3.096394963E0,9.009996802E-2,5.314370990E-2,1.117850468E-1
3.098709650E0,8.399149776E-2,5.314370990E-2,1.020114943E-1
3.101024390E0,8.399149776E-2,5.573981255E-2,9.712471068E-2
3.103339129E0,8.399149776E-2,5.573981255E-2,8.735115826E-2
3.105653817E0,8.872556686E-2,5.329642445E-2,8.108997345E-2
3.107968556E0,9.361234307E-2,4.840964451E-2,7.375980914E-2
3.110283244E0,1.030804738E-1,3.710897267E-2,6.887302548E-2
3.112597983E0,1.114796251E-1,2.596100792E-2,6.154286116E-2
3.114912671E0,1.211004704E-1,1.481304597E-2,5.528167635E-2
3.117227410E0,1.343863904E-1,1.068982761E-3,5.405998230E-2
3.119542098E0,1.487413049E-1,-1.634016447E-2,5.161659420E-2
3.121856838E0,1.632489264E-1,-3.374931216E-2,4.795150831E-2
3.124171577E0,1.788255423E-1,-4.749337584E-2,4.657710344E-2
3.126486265E0,1.968455315E-1,-6.368082762E-2,4.535540938E-2
3.128801004E0,2.124221325E-1,-7.620319724E-2,4.413371533E-2
3.131115692E0,2.267770469E-1,-8.735115826E-2,4.413371533E-2
3.133430431E0,2.400629669E-1,-9.239064902E-2,4.169032723E-2
3.135745119E0,2.496838123E-1,-9.239064902E-2,3.924693540E-2
3.138059858E0,2.615953386E-1,-9.239064902E-2,3.802524135E-2
3.140374598E0,2.675510943E-1,-8.857285231E-2,3.695625812E-2
3.142689285E0,2.722851634E-1,-8.231166750E-2,3.451287001E-2
3.145004025E0,2.759502530E-1,-7.238540053E-2,3.206948191E-2
3.147318713E0,2.759502530E-1,-5.986303091E-2,3.206948191E-2
3.149633452E0,2.770192325E-1,-4.489727318E-2,2.855710872E-2
3.151948140E0,2.721324563E-1,-3.115320951E-2,2.489202656E-2
3.154262879E0,2.673983872E-1,-1.496575773E-2,2.122694254E-2
3.156577619E0,2.600682080E-1,2.443389036E-3,2.137965336E-2
3.158892306E0,2.528907657E-1,1.618745178E-2,2.015795931E-2
3.161207046E0,2.432699203E-1,2.993151546E-2,1.893626526E-2
3.163521733E0,2.336490750E-1,4.489727318E-2,1.649287529E-2
3.165836473E0,2.240282297E-1,5.604523420E-2,1.404948719E-2
3.168151160E0,2.168507725E-1,6.612421572E-2,1.160609815E-2
3.170465900E0,2.095206082E-1,7.482878864E-2,9.162709117E-3
3.172780588E0,2.035648525E-1,8.231166750E-2,7.941014133E-3
3.175095327E0,1.998997629E-1,8.735115826E-2,6.719320081E-3
3.177410067E0,1.986780763E-1,8.857285231E-2,3.054236295E-3
3.179724754E0,1.963873953E-1,9.239064902E-2,-6.108472589E-4
3.182039494E0,1.986780763E-1,9.483403713E-2,-6.719320081E-3
3.184354181E0,2.011214644E-1,9.483403713E-2,-1.160609815E-2
3.186668921E0,2.023431510E-1,9.361234307E-2,-1.649287529E-2
3.188983660E0,2.021904439E-1,9.376505762E-2,-2.626643144E-2
3.191298348E0,2.082989216E-1,9.376505762E-2,-3.359659761E-2
3.193613088E0,2.118112892E-1,9.254335612E-2,-4.092676565E-2
3.195927775E0,2.165453583E-1,9.513945878E-2,-5.192201585E-2
3.198242515E0,2.214321345E-1,9.758284688E-2,-5.558710173E-2
3.200557202E0,2.249445021E-1,1.039967462E-1,-6.047387794E-2
3.202871942E0,2.272351831E-1,1.078145429E-1,-6.536065787E-2
3.205186681E0,2.296785712E-1,1.140757278E-1,-6.780404598E-2
3.207501369E0,2.321219593E-1,1.177408099E-1,-6.902574003E-2
3.209816108E0,2.331909388E-1,1.189625040E-1,-6.536065787E-2
3.212130796E0,2.321219593E-1,1.215586066E-1,-6.536065787E-2
3.214445535E0,2.309002578E-1,1.177408099E-1,-6.413896382E-2
3.216760223E0,2.309002578E-1,1.102579311E-1,-6.047387794E-2
3.219074963E0,2.321219593E-1,1.026223376E-1,-6.047387794E-2
3.221389650E0,2.333436459E-1,9.132166207E-2,-5.803048983E-2
3.223704390E0,2.345653474E-1,7.773031294E-2,-5.818320066E-2
3.226019129E0,2.394521236E-1,6.276455522E-2,-5.696150661E-2
3.228333817E0,2.466295809E-1,4.902049154E-2,-5.451811850E-2
3.230648556E0,2.527380586E-1,3.649812192E-2,-5.467082933E-2
3.232963244E0,2.611372173E-1,2.535016090E-2,-5.467082933E-2
3.235277983E0,2.683146596E-1,1.649287529E-2,-5.222744122E-2
3.237592671E0,2.742704153E-1,9.009997360E-3,-5.344913527E-2
3.239907410E0,2.791571915E-1,4.123218823E-3,-5.467082933E-2
3.242222150E0,2.803788781E-1,3.054236295E-4,-5.467082933E-2
3.244536838E0,2.851129472E-1,-9.162708884E-4,-5.589252338E-2
3.246851577E0,2.851129472E-1,-3.359660041E-3,-5.833591148E-2
3.249166265E0,2.814478874E-1,-2.137965523E-3,-6.200099736E-2
3.251481004E0,2.791571915E-1,4.581354442E-4,-6.688777357E-2
3.253795744E0,2.730487287E-1,5.497625098E-3,-6.933116168E-2
3.256110431E0,2.670929730E-1,1.160609815E-2,-7.055285573E-2
3.258425171E0,2.634278834E-1,2.031067200E-2,-6.933116168E-2
3.260739858E0,2.599155009E-1,3.038965166E-2,-6.688777357E-2
3.263054598E0,2.515163720E-1,3.787253052E-2,-6.444438547E-2
3.265369285E0,2.454078794E-1,4.657710344E-2,-5.818320066E-2
3.267684025E0,2.418955117E-1,5.390727147E-2,-5.085303262E-2
3.269998765E0,2.357870489E-1,6.139015034E-2,-4.474456236E-2
3.272313452E0,2.310529798E-1,6.627693027E-2,-3.374931216E-2
3.274628192E0,2.263189107E-1,7.009471953E-2,-2.870982140E-2
3.276942879E0,2.214321345E-1,7.498150319E-2,-2.260134928E-2
3.279257619E0,2.179197669E-1,7.620319724E-2,-1.649287529E-2
3.281572306E0,2.154763639E-1,7.620319724E-2,-1.404948719E-2
3.283887046E0,2.142546773E-1,7.620319724E-2,-1.160609815E-2
3.286201785E0,2.119639963E-1,7.498150319E-2,-1.160609815E-2
3.288516473E0,2.119639963E-1,6.994201243E-2,-1.404948719E-2
3.290831213E0,2.131856978E-1,6.245913357E-2,-1.786728203E-2
3.293145900E0,2.144073844E-1,5.512896553E-2,-2.519745007E-2
3.295460640E0,2.191414535E-1,4.398100078E-2,-3.497100621E-2
3.297775379E0,2.250972092E-1,2.901524492E-2,-4.611896724E-2
3.300090067E0,2.299840003E-1,1.404948719E-2,-5.848862603E-2
3.302404806E0,2.396048307E-1,-7.635590737E-4,-7.192726433E-2
3.304719494E0,2.502946556E-1,-2.183778957E-2,-8.674030751E-2
3.307034233E0,2.599155009E-1,-4.672981426E-2,-1.027750522E-1
3.309348921E0,2.744231224E-1,-7.162184268E-2,-1.188097894E-1
3.311663660E0,2.912214398E-1,-9.651386738E-2,-1.322484314E-1
3.313978348E0,3.092414141E-1,-1.214058921E-1,-1.446180940E-1
3.316293088E0,3.284831047E-1,-1.462979168E-1,-1.533226669E-1
3.318607827E0,3.452814221E-1,-1.736333370E-1,-1.643179059E-1
3.320922515E0,3.620797098E-1,-1.985253543E-1,-1.705790907E-1
3.323237254E0,3.813214004E-1,-2.221956849E-1,-1.730224788E-1
3.325551942E0,4.005630910E-1,-2.446443290E-1,-1.719534993E-1
3.327866681E0,4.185830951E-1,-2.620534599E-1,-1.695101112E-1
3.330181421E0,4.329380095E-1,-2.771719396E-1,-1.621799469E-1
3.332496108E0,4.486673176E-1,-2.907632887E-1,-1.585148573E-1
3.334810848E0,4.654656053E-1,-3.008422852E-1,-1.498102844E-1
3.337125535E0,4.763081372E-1,-3.095468581E-1,-1.437018216E-1
3.339440275E0,4.847072959E-1,-3.159607351E-1,-1.339282542E-1
3.341754963E0,4.894413650E-1,-3.184041381E-1,-1.265980899E-1
3.344069702E0,4.906630516E-1,-3.184041381E-1,-1.180462316E-1
3.346384390E0,4.943281412E-1,-3.161134422E-1,-1.056765765E-1
3.348699129E0,4.931064546E-1,-3.122956753E-1,-9.590301663E-2
3.351013869E0,4.920374751E-1,-3.061871827E-1,-8.597674966E-2
3.353328556E0,4.895940721E-1,-2.962609231E-1,-7.498150319E-2
3.355643296E0,4.834856093E-1,-2.800734639E-1,-6.505523622E-2
3.357957983E0,4.799732268E-1,-2.614426315E-1,-5.283828825E-2
3.360272723E0,4.763081372E-1,-2.452551723E-1,-4.779879749E-2
3.362587463E0,4.679090083E-1,-2.266243398E-1,-4.031591862E-2
3.364902150E0,4.642439187E-1,-2.104368806E-1,-3.909422457E-2
3.367216890E0,4.595098495E-1,-1.979145110E-1,-3.787253052E-2
3.369531577E0,4.570664763E-1,-1.841704547E-1,-4.398100078E-2
3.371846317E0,4.569137394E-1,-1.704263836E-1,-4.627167806E-2
3.374161004E0,4.616478086E-1,-1.580567211E-1,-5.482354015E-2
3.376475744E0,4.663818777E-1,-1.441599578E-1,-6.337540597E-2
3.378790483E0,4.747810364E-1,-1.317902952E-1,-6.933116168E-2
3.381105171E0,4.879142344E-1,-1.142284349E-1,-7.788302749E-2
3.383419910E0,5.022691488E-1,-9.422318637E-2,-8.383878320E-2
3.385734598E0,5.225798488E-1,-7.437065244E-2,-8.994726092E-2
3.388049338E0,5.451811552E-1,-5.436540768E-2,-9.468132257E-2
3.390364025E0,5.726693273E-1,-3.313846514E-2,-9.819369763E-2
3.392678765E0,6.013791561E-1,-1.191152167E-2,-1.053711548E-1
3.394993504E0,6.325323582E-1,8.093725890E-3,-1.064401343E-1
3.397308192E0,6.659762263E-1,2.916795574E-2,-1.099525094E-1
3.399622931E0,7.007945180E-1,4.917320609E-2,-1.110214889E-1
3.401937619E0,7.317950130E-1,6.917845458E-2,-1.119377613E-1
3.404252358E0,7.629482150E-1,9.147437662E-2,-1.093416587E-1
3.406567046E0,7.879929543E-1,1.128540337E-1,-1.055238619E-1
3.408881785E0,8.083036542E-1,1.365243644E-1,-1.029277667E-1
3.411196525E0,8.226585388E-1,1.563768983E-1,-9.788827598E-2
3.413511213E0,8.347227573E-1,1.800472289E-1,-9.407047927E-2
3.415825952E0,8.357917666E-1,1.974563748E-1,-8.903098851E-2
3.418140640E0,8.298360109E-1,2.124221325E-1,-8.414421231E-2
3.420455379E0,8.189934492E-1,2.199050188E-1,-8.047912270E-2
3.422770067E0,8.021951914E-1,2.237228155E-1,-7.925742865E-2
3.425084806E0,7.794411182E-1,2.211267054E-1,-7.559234649E-2
3.427399546E0,7.519529462E-1,2.160872221E-1,-7.452336699E-2
3.429714233E0,7.171346545E-1,2.049392611E-1,-7.589777559E-2
3.432028973E0,6.812474132E-1,1.875301152E-1,-7.482878864E-2
3.434343660E0,6.406260729E-1,1.713426560E-1,-7.986827940E-2
3.436658400E0,5.986303091E-1,1.476723254E-1,-8.261708915E-2
3.438973088E0,5.555655956E-1,1.165191159E-1,-8.658760041E-2
3.441287827E0,5.112791657E-1,8.521319181E-2,-9.422318637E-2
3.443602567E0,4.706578255E-1,4.917320609E-2,-1.055238619E-1
3.445917254E0,4.311054647E-1,1.068982668E-2,-1.180462316E-1
3.448231994E0,3.952181637E-1,-2.550287358E-2,-1.342336833E-1
3.450546681E0,3.593308926E-1,-6.016845629E-2,-1.528645307E-1
3.452861421E0,3.293993771E-1,-9.376505762E-2,-1.727170646E-1
3.455176108E0,3.006895781E-1,-1.223221645E-1,-1.887518018E-1
3.457490848E0,2.754921019E-1,-1.459924877E-1,-2.073826492E-1
3.459805588E0,2.551814318E-1,-1.632489264E-1,-2.234173864E-1
3.462120275E0,2.360924631E-1,-1.769929975E-1,-2.345653474E-1
3.464435015E0,2.228065431E-1,-1.881409585E-1,-2.432699203E-1
3.466749702E0,2.121167034E-1,-1.968455315E-1,-2.519744933E-1
3.469064442E0,2.024958730E-1,-1.992889196E-1,-2.568612695E-1
3.471379181E0,1.965401024E-1,-1.966928244E-1,-2.593046725E-1
3.473693869E0,1.904316396E-1,-1.905843467E-1,-2.593046725E-1
3.476008608E0,1.832541823E-1,-1.780619770E-1,-2.556395829E-1
3.478323296E0,1.795890927E-1,-1.618745178E-1,-2.530434728E-1
3.480638035E0,1.736333370E-1,-1.420219839E-1,-2.481566966E-1
3.482952723E0,1.663031727E-1,-1.183516532E-1,-2.443388999E-1
3.485267463E0,1.579040140E-1,-8.964183182E-2,-2.368560284E-1
3.487582202E0,1.482831687E-1,-5.986303091E-2,-2.281514555E-1
3.489896890E0,1.398840249E-1,-2.748812735E-2,-2.195995897E-1
3.492211629E0,1.301104724E-1,7.482878864E-3,-2.082989216E-1
3.494526317E0,1.217113137E-1,4.107947648E-2,-1.995943487E-1
3.496841056E0,1.133121699E-1,7.834116369E-2,-1.884463727E-1
3.499155796E0,1.047603041E-1,1.146865711E-1,-1.785201132E-1
3.501470483E0,9.391776472E-2,1.507265568E-1,-1.698155403E-1
3.503785223E0,8.429691941E-2,1.843231618E-1,-1.598892659E-1
3.506099910E0,7.467607409E-2,2.166980654E-1,-1.511846930E-1
3.508414650E0,6.261184067E-2,2.454078794E-1,-1.450762302E-1
3.510729338E0,5.421269313E-2,2.739650011E-1,-1.375933439E-1
3.513044077E0,4.443913698E-2,2.976353168E-1,-1.301104724E-1
3.515358817E0,3.374931216E-2,3.200839758E-1,-1.252236813E-1
3.517673504E0,2.168507688E-2,3.399364948E-1,-1.189625040E-1
3.519988244E0,1.084253844E-2,3.561239541E-1,-1.165191159E-1
3.522302931E0,0.000000000E0,3.686463237E-1,-1.078145429E-1
3.524617671E0,-1.557660475E-2,3.785725832E-1,-1.029277667E-1
3.526932410E0,-2.870982140E-2,3.834593594E-1,-9.681928903E-2
3.529247098E0,-4.428642616E-2,3.859027624E-1,-8.948912472E-2
3.531561838E0,-5.864133686E-2,3.846810758E-1,-8.215895295E-2
3.533876525E0,-7.421794534E-2,3.808632791E-1,-7.620319724E-2
3.536191265E0,-9.101624042E-2,3.733803928E-1,-6.765133142E-2
3.538505952E0,-1.064401343E-1,3.658975065E-1,-6.398624927E-2
3.540820692E0,-1.220167428E-1,3.497100472E-1,-6.047387794E-2
3.543135379E0,-1.351499557E-1,3.297048211E-1,-5.696150661E-2
3.545450119E0,-1.482831687E-1,3.060344756E-1,-5.329642445E-2
3.547764858E0,-1.589729935E-1,2.748812735E-1,-5.344913527E-2
3.550079546E0,-1.672194302E-1,2.362451702E-1,-5.253286287E-2
3.552394285E0,-1.695101112E-1,1.951656938E-1,-5.635065958E-2
3.554708973E0,-1.754658818E-1,1.464506239E-1,-6.139015034E-2
3.557023713E0,-1.718007922E-1,9.529217333E-2,-7.146912813E-2
3.559338452E0,-1.632489264E-1,4.428642616E-2,-8.139539510E-2
3.561653140E0,-1.499630064E-1,-1.053711493E-2,-9.391776472E-2
3.563967879E0,-1.307213157E-1,-6.536065787E-2,-1.076618284E-1
3.566282567E0,-1.041494608E-1,-1.163664013E-1,-1.236965731E-1
3.568597306E0,-7.055285573E-2,-1.698155403E-1,-1.409530044E-1
3.570912046E0,-3.695625812E-2,-2.159345001E-1,-1.569877416E-1
3.573226733E0,-9.162708884E-4,-2.619007528E-1,-1.754658818E-1
3.575541473E0,3.878879920E-2,-3.029802442E-1,-1.878355294E-1
3.577856160E0,7.238540053E-2,-3.353551328E-1,-2.002051920E-1
3.580170900E0,1.094943732E-1,-3.614688516E-1,-2.099787444E-1
3.582485588E0,1.418692768E-1,-3.814741075E-1,-2.197522968E-1
3.584800327E0,1.719534993E-1,-3.938437700E-1,-2.246390730E-1
3.587115015E0,1.982199401E-1,-4.001049399E-1,-2.270824611E-1
3.589429754E0,2.199050188E-1,-4.013266563E-1,-2.270824611E-1
3.591744494E0,2.354816198E-1,-3.952181637E-1,-2.257080674E-1
3.594059181E0,2.461714447E-1,-3.839175105E-1,-2.218902707E-1
3.596373921E0,2.557922900E-1,-3.665083647E-1,-2.145601064E-1
3.598688608E0,2.580829561E-1,-3.416163325E-1,-2.046338320E-1
3.601003348E0,2.544178963E-1,-3.130592108E-1,-1.922641695E-1
3.603318088E0,2.484621257E-1,-2.782409191E-1,-1.785201132E-1
3.605632775E0,2.363978922E-1,-2.383831441E-1,-1.661504507E-1
3.607947515E0,2.171562016E-1,-1.973036677E-1,-1.525591016E-1
3.610262202E0,1.942494214E-1,-1.499630064E-1,-1.377460510E-1
3.612576942E0,1.701209545E-1,-9.895725548E-2,-1.227803007E-1
3.614891629E0,1.412584335E-1,-4.672981426E-2,-1.091889441E-1
3.617206369E0,1.088835225E-1,4.428642802E-3,-9.681928903E-2
3.619521108E0,7.635590434E-2,5.543438718E-2,-8.444963396E-2
3.621835796E0,4.749337584E-2,1.027750522E-1,-7.452336699E-2
3.624150535E0,1.389677543E-2,1.490467340E-1,-6.704048812E-2
3.626465223E0,-1.863084175E-2,1.925695986E-1,-6.077930331E-2
3.628779963E0,-4.260659590E-2,2.275405973E-1,-5.589252338E-2
3.631094702E0,-6.902574003E-2,2.586938143E-1,-5.329642445E-2
3.633409390E0,-9.071081877E-2,2.860292196E-1,-5.207473040E-2
3.635724129E0,-1.087308154E-1,3.084778786E-1,-5.207473040E-2
3.638038817E0,-1.243074164E-1,3.222219348E-1,-5.070032179E-2
3.640353556E0,-1.363716573E-1,3.321481943E-1,-4.947862774E-2
3.642668244E0,-1.472141892E-1,3.384093940E-1,-5.070032179E-2
3.644982983E0,-1.531699449E-1,3.384093940E-1,-5.329642445E-2
3.647297723E0,-1.556133330E-1,3.335226178E-1,-5.573981255E-2
3.649612410E0,-1.591257155E-1,3.210002482E-1,-6.184828654E-2
3.651927150E0,-1.554606259E-1,3.035911024E-1,-6.933116168E-2
3.654241838E0,-1.507265568E-1,2.799207568E-1,-7.681404054E-2
3.656556577E0,-1.411057115E-1,2.538070381E-1,-8.918370306E-2
3.658871317E0,-1.278197914E-1,2.202104330E-1,-1.003316641E-1
3.661186004E0,-1.110214889E-1,1.878355294E-1,-1.125486046E-1
3.663500744E0,-9.177979827E-2,1.505738497E-1,-1.249182671E-1
3.665815431E0,-7.360709459E-2,1.119377613E-1,-1.385096163E-1
3.668130171E0,-5.085303262E-2,7.452336699E-2,-1.484358907E-1
3.670444858E0,-2.916795574E-2,3.710897267E-2,-1.583621502E-1
3.672759598E0,-6.413896102E-3,1.068982761E-3,-1.707318127E-1
3.675074338E0,1.771457121E-2,-3.252761811E-2,-1.782146841E-1
3.677389025E0,4.169032723E-2,-6.627693027E-2,-1.856975704E-1
3.679703765E0,6.581879407E-2,-9.605573118E-2,-1.918060333E-1
3.682018452E0,8.857285231E-2,-1.235438585E-1,-1.968455315E-1
3.684333192E0,1.102579311E-1,-1.484358907E-1,-2.005106062E-1
3.686647879E0,1.317902952E-1,-1.696628332E-1,-2.017323077E-1
3.688962619E0,1.475196183E-1,-1.858502775E-1,-2.005106062E-1
3.691277358E0,1.606528312E-1,-1.983726472E-1,-1.992889196E-1
3.693592046E0,1.739387512E-1,-2.082989216E-1,-1.968455315E-1
3.695906785E0,1.823379099E-1,-2.121167034E-1,-1.919587553E-1
3.698221473E0,1.918060333E-1,-2.108950168E-1,-1.895153672E-1
3.700536213E0,1.966928244E-1,-2.070772201E-1,-1.834068894E-1
3.702850952E0,1.991362125E-1,-2.009687424E-1,-1.771457046E-1
3.705165640E0,1.979145110E-1,-1.884463727E-1,-1.734806150E-1
3.707480379E0,1.954711229E-1,-1.710372269E-1,-1.672194302E-1
3.709795067E0,1.918060333E-1,-1.499630064E-1,-1.609582454E-1
3.712109806E0,1.893626451E-1,-1.250709742E-1,-1.536280811E-1
3.714424494E0,1.844758689E-1,-9.880454093E-2,-1.449235082E-1
3.716739233E0,1.772984117E-1,-7.391251624E-2,-1.386623234E-1
3.719053973E0,1.711899489E-1,-4.902049154E-2,-1.311794519E-1
3.721368660E0,1.640124917E-1,-2.412846684E-2,-1.250709742E-1
3.723683400E0,1.556133330E-1,7.635590737E-4,-1.200314835E-1
3.725998088E0,1.495048702E-1,2.687728032E-2,-1.162136942E-1
3.728312827E0,1.398840249E-1,4.932591692E-2,-1.137702987E-1
3.730627567E0,1.337755471E-1,7.055285573E-2,-1.148392856E-1
3.732942254E0,1.278197914E-1,8.918370306E-2,-1.160609797E-1
3.735256994E0,1.192679256E-1,1.017060652E-1,-1.197260618E-1
3.737571681E0,1.120904684E-1,1.105633527E-1,-1.258345395E-1
3.739886421E0,1.072036922E-1,1.194206402E-1,-1.343863904E-1
3.742201108E0,1.059819981E-1,1.244601309E-1,-1.404948682E-1
3.744515848E0,1.047603041E-1,1.269035190E-1,-1.490467340E-1
3.746830588E0,9.758284688E-2,1.282779276E-1,-1.563768983E-1
3.749145275E0,9.284878522E-2,1.282779276E-1,-1.614163816E-1
3.751460015E0,9.040539712E-2,1.294996142E-1,-1.650814712E-1
3.753774702E0,7.834116369E-2,1.258345395E-1,-1.699682474E-1
3.756089442E0,6.765133142E-2,1.258345395E-1,-1.724116355E-1
3.758404181E0,5.558710173E-2,1.220167428E-1,-1.725643575E-1
3.760718869E0,4.123219103E-2,1.159082651E-1,-1.725643575E-1
3.763033608E0,2.687728032E-2,1.084253863E-1,-1.690519750E-1
3.765348296E0,1.023169141E-2,9.819369763E-2,-1.678302884E-1
3.767663035E0,-6.566607859E-3,8.826743066E-2,-1.630962193E-1
3.769977723E0,-2.092151903E-2,7.574506104E-2,-1.594311297E-1
3.772292463E0,-3.527642787E-2,6.200099736E-2,-1.534753740E-1
3.774607202E0,-5.192201585E-2,4.947862774E-2,-1.473668963E-1
3.776921890E0,-6.383354217E-2,3.573456407E-2,-1.388150454E-1
3.779236629E0,-7.941014320E-2,2.076880634E-2,-1.267508119E-1
3.781551317E0,-8.780929446E-2,5.803049076E-3,-1.157555580E-1
3.783866056E0,-9.483403713E-2,-1.175880991E-2,-1.047603041E-1
3.786180796E0,-1.032331884E-1,-2.794626169E-2,-9.391776472E-2
3.788495483E0,-1.102579311E-1,-4.672981426E-2,-7.925742865E-2
3.790810223E0,-1.125486046E-1,-6.429167092E-2,-6.826218218E-2
3.793124910E0,-1.125486046E-1,-8.811471611E-2,-5.619794875E-2
3.795439650E0,-1.148392856E-1,-1.117850468E-1,-4.275930673E-2
3.797754390E0,-1.111742035E-1,-1.356080920E-1,-3.176405653E-2
3.800069077E0,-1.087308154E-1,-1.592784226E-1,-2.214321308E-2
3.802383817E0,-1.038440317E-1,-1.805053651E-1,-1.603474095E-2
3.804698504E0,-9.651386738E-2,-2.005106062E-1,-6.261184346E-3
3.807013244E0,-8.444963396E-2,-2.179197669E-1,1.068982761E-3
3.809327931E0,-7.360709459E-2,-2.354816198E-1,4.734066315E-3
3.811642671E0,-6.169557199E-2,-2.466295809E-1,9.620844387E-3
3.813957410E0,-4.718795046E-2,-2.603736520E-1,9.620844387E-3
3.816272098E0,-3.161134571E-2,-2.716743052E-1,1.328592747E-2
3.818586838E0,-1.481304597E-2,-2.828222811E-1,1.450762246E-2
3.820901525E0,3.206948051E-3,-2.890834510E-1,1.206423342E-2
3.823216265E0,1.878355257E-2,-2.929012477E-1,8.399149403E-3
3.825530952E0,3.787253052E-2,-2.977880239E-1,1.068982761E-3
3.827845692E0,5.344913527E-2,-3.014531136E-1,-7.482878864E-3
3.830160431E0,6.673506647E-2,-2.977880239E-1,-1.236965694E-2
3.832475119E0,8.338065445E-2,-2.964136302E-1,-1.969982497E-2
3.834789858E0,9.773556143E-2,-2.913741469E-1,-2.825168520E-2
3.837104546E0,1.108687744E-1,-2.826695740E-1,-3.787253052E-2
3.839419285E0,1.204896197E-1,-2.663294077E-1,-4.764608666E-2
3.841734025E0,1.264453828E-1,-2.489202619E-1,-5.375456065E-2
3.844048713E0,1.346918195E-1,-2.264716178E-1,-5.971032009E-2
3.846363452E0,1.334701329E-1,-2.014268786E-1,-6.444438547E-2
3.848678140E0,1.345391124E-1,-1.714953631E-1,-6.810946763E-2
3.850992879E0,1.320957243E-1,-1.378987730E-1,-6.917845458E-2
3.853307619E0,1.223221645E-1,-1.017060652E-1,-6.902574003E-2
3.855622306E0,1.139230132E-1,-6.566607952E-2,-6.520794332E-2
3.857937046E0,1.018587798E-1,-2.702999115E-2,-6.016845629E-2
3.860251733E0,8.612946421E-2,1.404948719E-2,-5.512896553E-2
3.862566473E0,7.055285573E-2,5.268557742E-2,-4.520269856E-2
3.864881160E0,5.360184610E-2,9.009996802E-2,-3.405473381E-2
3.867195900E0,3.313846514E-2,1.287360638E-1,-1.924168877E-2
3.869510640E0,1.404948719E-2,1.611109674E-1,-5.650337320E-3
3.871825327E0,-5.192201585E-3,1.910424829E-1,7.941014133E-3
3.874140067E0,-2.443389036E-2,2.145601064E-1,2.382304333E-2
3.876454754E0,-4.245388508E-2,2.344126403E-1,4.107947648E-2
3.878769494E0,-5.558710173E-2,2.506000996E-1,5.467082933E-2
3.881084181E0,-6.765133142E-2,2.605263591E-1,6.688777357E-2
3.883398921E0,-7.589777559E-2,2.678565085E-1,8.032641560E-2
3.885713660E0,-8.200624585E-2,2.702999115E-1,9.391776472E-2
3.888028348E0,-8.551861346E-2,2.678565085E-1,1.061347127E-1
3.890343088E0,-9.025268257E-2,2.640387416E-1,1.159082651E-1
3.892657775E0,-8.903098851E-2,2.577775419E-1,1.269035190E-1
3.894972515E0,-8.903098851E-2,2.464768738E-1,1.342336833E-1
3.897287254E0,-8.536590636E-2,2.327328026E-1,1.403421611E-1
3.899601942E0,-8.170082420E-2,2.202104330E-1,1.452289373E-1
3.901916681E0,-7.925742865E-2,2.064663768E-1,1.499630064E-1
3.904231369E0,-7.314895838E-2,1.890572309E-1,1.524063945E-1
3.906546108E0,-6.841489673E-2,1.727170646E-1,1.548497826E-1
3.908860848E0,-6.108472496E-2,1.516428292E-1,1.571404636E-1
3.911175535E0,-5.146388337E-2,1.291942000E-1,1.595838517E-1
3.913490275E0,-4.306473210E-2,1.079672500E-1,1.632489264E-1
3.915804963E0,-3.329117596E-2,8.658760041E-2,1.692046970E-1
3.918119702E0,-2.367033064E-2,6.536065787E-2,1.728697717E-1
3.920434442E0,-1.649287529E-2,4.779879749E-2,1.777565479E-1
3.922749129E0,-6.872031838E-3,2.657185495E-2,1.838650256E-1
3.925063869E0,4.581354442E-4,6.719320081E-3,1.873773932E-1
3.927378556E0,8.857285604E-3,-1.328592747E-2,1.885990947E-1
3.929693296E0,2.092151903E-2,-3.206948191E-2,1.934858710E-1
3.932007983E0,3.176405653E-2,-4.947862774E-2,1.921114624E-1
3.934322723E0,4.382828996E-2,-6.810946763E-2,1.933331639E-1
3.936637463E0,6.062658876E-2,-8.185353130E-2,1.945548505E-1
3.938952150E0,7.986827940E-2,-9.941539168E-2,1.982199401E-1
3.941266890E0,1.001789495E-1,-1.143811494E-1,2.018850148E-1
3.943581577E0,1.218640283E-1,-1.293469071E-1,2.092151791E-1
3.945896317E0,1.482831687E-1,-1.418692768E-1,2.166980654E-1
3.948211056E0,1.722589284E-1,-1.543916464E-1,2.240282297E-1
3.950525744E0,1.939440072E-1,-1.643179059E-1,2.289150059E-1
3.952840483E0,2.179197669E-1,-1.756185889E-1,2.388412803E-1
3.955155171E0,2.371614426E-1,-1.869192570E-1,2.449497581E-1
3.957469910E0,2.539597452E-1,-1.956238300E-1,2.522799075E-1
3.959784598E0,2.695363462E-1,-2.044811249E-1,2.571666837E-1
3.962099338E0,2.791571915E-1,-2.131856978E-1,2.620534599E-1
3.964414077E0,2.912214398E-1,-2.206685692E-1,2.620534599E-1
3.966728765E0,2.971771955E-1,-2.244863659E-1,2.644968629E-1
3.969043504E0,2.983988822E-1,-2.257080674E-1,2.632751763E-1
3.971358192E0,2.983988822E-1,-2.257080674E-1,2.632751763E-1
3.973672931E0,2.983988822E-1,-2.243336588E-1,2.596100867E-1
3.975987671E0,2.983988822E-1,-2.194468826E-1,2.571666837E-1
3.978302358E0,2.947337925E-1,-2.144073844E-1,2.559449971E-1
3.980617098E0,2.910687327E-1,-2.044811249E-1,2.535016239E-1
3.982931785E0,2.863346636E-1,-1.931804419E-1,2.487675399E-1
3.985246525E0,2.790044844E-1,-1.818797737E-1,2.438807636E-1
3.987561265E0,2.730487287E-1,-1.693574041E-1,2.402156889E-1
3.989875952E0,2.681619525E-1,-1.531699449E-1,2.377723008E-1
3.992190692E0,2.622061968E-1,-1.333174109E-1,2.341072112E-1
3.994505379E0,2.548760176E-1,-1.133121699E-1,2.293731421E-1
3.996820119E0,2.489202619E-1,-9.208522737E-2,2.293731421E-1
3.999134806E0,2.428117841E-1,-6.459710002E-2,2.270824611E-1
4.001449546E0,2.391466945E-1,-3.603998944E-2,2.258607745E-1
4.003764285E0,2.367033064E-1,-7.330167107E-3,2.272351831E-1
4.006078973E0,2.341072112E-1,2.260134928E-2,2.261662036E-1
4.008393713E0,2.365505993E-1,5.757235363E-2,2.263189107E-1
4.010708400E0,2.388412803E-1,9.116895497E-2,2.252499312E-1
4.013023140E0,2.446443290E-1,1.299577504E-1,2.254026383E-1
4.015337879E0,2.506000996E-1,1.635543555E-1,2.267770469E-1
4.017652567E0,2.600682080E-1,1.997470558E-1,2.281514555E-1
4.019967306E0,2.695363462E-1,2.321219593E-1,2.283041626E-1
4.022281994E0,2.791571915E-1,2.632751763E-1,2.309002578E-1
4.024596733E0,2.910687327E-1,2.895416021E-1,2.298312783E-1
4.026911473E0,3.017585576E-1,3.119902313E-1,2.324273884E-1
4.029226160E0,3.136700690E-1,3.306210935E-1,2.338017821E-1
4.031540900E0,3.208475113E-1,3.443651497E-1,2.339545041E-1
4.033855588E0,3.316900730E-1,3.542914093E-1,2.327328026E-1
4.036170327E0,3.399364948E-1,3.629959822E-1,2.302894145E-1
4.038485015E0,3.471139669E-1,3.629959822E-1,2.315111160E-1
4.040799754E0,3.483356535E-1,3.579564989E-1,2.327328026E-1
4.043114494E0,3.507790267E-1,3.518480062E-1,2.327328026E-1
4.045429181E0,3.507790267E-1,3.417690396E-1,2.315111160E-1
4.047743921E0,3.472666740E-1,3.318427801E-1,2.302894145E-1
4.050058608E0,3.413109183E-1,3.168770075E-1,2.240282297E-1
4.052373348E0,3.377985358E-1,2.982461751E-1,2.214321345E-1
4.054688088E0,3.293993771E-1,2.745758295E-1,2.127275616E-1
4.057002775E0,3.187095523E-1,2.522799075E-1,2.076880634E-1
4.059317515E0,3.078670204E-1,2.247917950E-1,1.953184158E-1
4.061632202E0,2.996205688E-1,1.937913001E-1,1.817270666E-1
4.063946942E0,2.912214398E-1,1.614163816E-1,1.692046970E-1
4.066261681E0,2.828222811E-1,1.290414780E-1,1.519482583E-1
4.068576369E0,2.793098986E-1,1.015533581E-1,1.359135211E-1
4.070891108E0,2.745758295E-1,7.177454978E-2,1.209477559E-1
4.073205796E0,2.686200738E-1,4.321744293E-2,1.049130186E-1
4.075520535E0,2.673983872E-1,1.710372418E-2,9.132166207E-2
4.077835275E0,2.673983872E-1,-9.009997360E-3,7.650861889E-2
4.080149963E0,2.651077211E-1,-3.023693897E-2,6.536065787E-2
4.082464702E0,2.615953386E-1,-5.008947477E-2,5.176930502E-2
4.084779390E0,2.579302490E-1,-6.612421572E-2,4.062134400E-2
4.087094129E0,2.556395829E-1,-7.986827940E-2,3.206948191E-2
4.089408869E0,2.519744933E-1,-9.223793447E-2,2.214321308E-2
4.091723556E0,2.435753495E-1,-1.009425074E-1,1.221694518E-2
4.094038296E0,2.376195788E-1,-1.072036922E-1,6.108472589E-3
4.096352983E0,2.304421216E-1,-1.058292910E-1,1.221694518E-3
4.098667723E0,2.208212912E-1,-9.956810623E-2,-6.261184346E-3
4.100982410E0,2.075353563E-1,-8.964183182E-2,-1.236965694E-2
4.103297150E0,1.966928244E-1,-7.207997888E-2,-1.343864016E-2
4.105611890E0,1.846285909E-1,-5.344913527E-2,-1.710372418E-2
4.107926577E0,1.762294322E-1,-3.222219273E-2,-1.832541823E-2
4.110241317E0,1.641651988E-1,-8.551862091E-3,-1.695101149E-2
4.112556004E0,1.498102844E-1,1.511846948E-2,-1.450762246E-2
4.114870744E0,1.377460510E-1,4.123219103E-2,-9.468132630E-3
4.117185483E0,1.220167428E-1,6.490252167E-2,-5.803049076E-3
4.119500171E0,1.039967462E-1,9.116895497E-2,-3.206948051E-3
4.121814910E0,8.842013776E-2,1.149920002E-1,1.679830020E-3
4.124129598E0,7.040014863E-2,1.386623234E-1,4.123218823E-3
4.126444338E0,5.360184610E-2,1.597365588E-1,7.941014133E-3
4.128759077E0,3.436015919E-2,1.809635013E-1,1.160609815E-2
4.131073765E0,1.511846948E-2,2.034121305E-1,1.542389300E-2
4.133388504E0,-4.581354442E-4,2.258607745E-1,1.542389300E-2
4.135703192E0,-2.092151903E-2,2.457133085E-1,1.786728203E-2
4.138017931E0,-3.894151375E-2,2.657185495E-1,2.031067200E-2
4.140332619E0,-5.451811850E-2,2.831276953E-1,2.412846684E-2
4.142647358E0,-7.024743408E-2,2.968717813E-1,2.657185495E-2
4.144962098E0,-8.582404256E-2,3.043546379E-1,2.901524492E-2
4.147276785E0,-9.895725548E-2,3.106158376E-1,3.145863488E-2
4.149591525E0,-1.097997949E-1,3.118375242E-1,3.268032894E-2
4.151906213E0,-1.217113137E-1,3.080197275E-1,3.130592033E-2
4.154220952E0,-1.288887709E-1,2.980934680E-1,3.008422814E-2
4.156535692E0,-1.385096163E-1,2.881672084E-1,3.130592033E-2
4.158850379E0,-1.408002973E-1,2.693836391E-1,3.237490356E-2
4.161165119E0,-1.408002973E-1,2.457133085E-1,2.977880463E-2
4.163479858E0,-1.394258887E-1,2.195995897E-1,2.855710872E-2
4.165794546E0,-1.334701329E-1,1.896680743E-1,2.840439789E-2
4.168109285E0,-1.261399537E-1,1.597365588E-1,2.580829710E-2
4.170423973E0,-1.200314835E-1,1.273616552E-1,2.199050039E-2
4.172738713E0,-1.079672500E-1,9.361234307E-2,1.939439960E-2
4.175053400E0,-9.590301663E-2,5.986303091E-2,1.572931744E-2
4.177368140E0,-8.399149776E-2,3.008422814E-2,9.468132630E-3
4.179682879E0,-7.314895838E-2,1.527118147E-4,1.985253533E-3
4.181997567E0,-6.459710002E-2,-2.596100792E-2,-6.719320081E-3
4.184312306E0,-5.253286287E-2,-5.207473040E-2,-1.527118124E-2
4.186626994E0,-4.291202128E-2,-7.330167294E-2,-2.397575416E-2
4.188941733E0,-3.573456407E-2,-9.193251282E-2,-3.512371704E-2
4.191256421E0,-2.855710872E-2,-1.130067408E-1,-4.611896724E-2
4.193571160E0,-2.137965336E-2,-1.291942000E-1,-5.360184610E-2
4.195885900E0,-1.649287529E-2,-1.354553849E-1,-6.215370819E-2
4.198200588E0,-1.420219894E-2,-1.427855492E-1,-6.719319522E-2
4.200515327E0,-1.542389300E-2,-1.440072358E-1,-7.207997888E-2
4.202830067E0,-1.771457121E-2,-1.391204596E-1,-7.452336699E-2
4.205144754E0,-1.893626526E-2,-1.316375881E-1,-7.696675509E-2
4.207459494E0,-2.504473738E-2,-1.191152185E-1,-7.437065244E-2
4.209774181E0,-3.466558084E-2,-1.004843712E-1,-7.437065244E-2
4.212088921E0,-4.306473210E-2,-7.925742865E-2,-7.299624383E-2
4.214403660E0,-5.757235363E-2,-5.176930502E-2,-6.810946763E-2
4.216718348E0,-7.437065244E-2,-2.443389036E-2,-6.306997687E-2
4.219033088E0,-8.994726092E-2,1.038440317E-2,-5.940489471E-2
4.221347775E0,-1.104106456E-1,4.413371533E-2,-5.314370990E-2
4.223662515E0,-1.308740228E-1,8.139539510E-2,-4.810422286E-2
4.225977202E0,-1.501157135E-1,1.177408099E-1,-4.428642616E-2
4.228291942E0,-1.705790907E-1,1.513374150E-1,-3.939964995E-2
4.230606681E0,-1.887518018E-1,1.875301152E-1,-3.436015919E-2
4.232921369E0,-2.055501044E-1,2.211267054E-1,-2.687728032E-2
4.235236108E0,-2.223484069E-1,2.510582209E-1,-1.939439960E-2
4.237550796E0,-2.356343269E-1,2.808370292E-1,-1.206423342E-2
4.239865535E0,-2.487675399E-1,3.069507480E-1,-2.137965523E-3
4.242180275E0,-2.608317733E-1,3.318427801E-1,5.344913341E-3
4.244494963E0,-2.704526186E-1,3.518480062E-1,1.389677543E-2
4.246809702E0,-2.765611112E-1,3.717005551E-1,2.137965336E-2
4.249124390E0,-2.800734639E-1,3.878880143E-1,2.764083818E-2
4.251439129E0,-2.861819267E-1,3.990359604E-1,3.374931216E-2
4.253753869E0,-2.921377122E-1,4.065188468E-1,4.107947648E-2
4.256068556E0,-2.933593988E-1,4.089622498E-1,4.352286831E-2
4.258383296E0,-2.945810854E-1,4.089622498E-1,4.718795046E-2
4.260697983E0,-2.944283783E-1,4.052971601E-1,4.963133857E-2
4.263012723E0,-2.956500649E-1,4.002576768E-1,5.329642445E-2
4.265327410E0,-2.944283783E-1,3.901786804E-1,5.696150661E-2
4.267642150E0,-2.896943092E-1,3.802524209E-1,5.940489471E-2
4.269956890E0,-2.860292196E-1,3.665083647E-1,6.306997687E-2
4.272271577E0,-2.786990702E-1,3.503209054E-1,6.673506647E-2
4.274586317E0,-2.750339806E-1,3.329117596E-1,6.902574003E-2
4.276901056E0,-2.715215981E-1,3.129065037E-1,7.269082218E-2
4.279215744E0,-2.629697323E-1,2.904578745E-1,7.635590434E-2
4.281530483E0,-2.568612695E-1,2.667875290E-1,7.864658535E-2
4.283845171E0,-2.496838123E-1,2.443388999E-1,8.108997345E-2
4.286159910E0,-2.412846684E-1,2.192941606E-1,8.215895295E-2
4.288474650E0,-2.363978922E-1,1.994416267E-1,8.215895295E-2
4.290789338E0,-2.290677279E-1,1.794363856E-1,8.444963396E-2
4.293104077E0,-2.194468826E-1,1.569877416E-1,8.322793990E-2
4.295418765E0,-2.147128135E-1,1.420219839E-1,8.307522535E-2
4.297733504E0,-2.063136548E-1,1.308740228E-1,8.185353130E-2
4.300048192E0,-2.002051920E-1,1.195733473E-1,8.185353130E-2
4.302362931E0,-1.942494214E-1,1.159082651E-1,8.185353130E-2
4.304677671E0,-1.893626451E-1,1.146865711E-1,8.063183725E-2
4.306992358E0,-1.798945218E-1,1.159082651E-1,8.063183725E-2
4.309307098E0,-1.786728203E-1,1.183516532E-1,7.941014320E-2
4.311621785E0,-1.786728203E-1,1.233911440E-1,8.078455180E-2
4.313936525E0,-1.739387512E-1,1.294996142E-1,8.444963396E-2
4.316251265E0,-1.702736765E-1,1.333174109E-1,8.811471611E-2
4.318565952E0,-1.714953631E-1,1.369825006E-1,9.055810422E-2
4.320880692E0,-1.739387512E-1,1.420219839E-1,9.437590092E-2
4.323195379E0,-1.739387512E-1,1.432436854E-1,9.804098308E-2
4.325510119E0,-1.774511337E-1,1.430909634E-1,1.041494608E-1
4.327824858E0,-1.798945218E-1,1.443126649E-1,1.102579311E-1
4.330139546E0,-1.858502775E-1,1.430909634E-1,1.151447073E-1
4.332454285E0,-1.858502775E-1,1.406475753E-1,1.224748790E-1
4.334768973E0,-1.893626451E-1,1.368297935E-1,1.285833418E-1
4.337083713E0,-1.928750277E-1,1.330119967E-1,1.359135211E-1
4.339398452E0,-1.953184158E-1,1.267508119E-1,1.432436854E-1
4.341713140E0,-1.953184158E-1,1.204896197E-1,1.493521482E-1
4.344027879E0,-1.940967143E-1,1.117850468E-1,1.542389393E-1
4.346342567E0,-1.939440072E-1,9.910997003E-2,1.591257155E-1
4.348657306E0,-1.963873953E-1,8.658760041E-2,1.601946950E-1
4.350972046E0,-1.963873953E-1,7.421794534E-2,1.614163816E-1
4.353286733E0,-1.939440072E-1,5.787777901E-2,1.626380831E-1
4.355601473E0,-1.878355294E-1,4.046862945E-2,1.600419879E-1
4.357916160E0,-1.841704547E-1,2.550287358E-2,1.563768983E-1
4.360230900E0,-1.794363856E-1,9.315420873E-3,1.525591016E-1
4.362545640E0,-1.734806150E-1,-1.832541777E-3,1.440072358E-1
4.364860327E0,-1.673721522E-1,-1.420219894E-2,1.365243644E-1
4.367175067E0,-1.589729935E-1,-2.290677279E-2,1.291942000E-1
4.369489754E0,-1.505738497E-1,-3.038965166E-2,1.206423342E-1
4.371804494E0,-1.421747059E-1,-3.771981969E-2,1.120904684E-1
4.374119233E0,-1.314848661E-1,-4.398100078E-2,1.058292910E-1
4.376433921E0,-1.218640283E-1,-4.764608666E-2,9.972081333E-2
4.378748660E0,-1.134648770E-1,-4.886778072E-2,9.483403713E-2
4.381063348E0,-1.075091213E-1,-5.512896553E-2,8.994726092E-2
4.383378088E0,-1.003316641E-1,-5.879404768E-2,8.872556686E-2
4.385692827E0,-9.437590092E-2,-6.139015034E-2,8.383878320E-2
4.388007515E0,-9.315420687E-2,-6.505523622E-2,8.017370105E-2
4.390322254E0,-8.704573661E-2,-6.872031838E-2,7.650861889E-2
4.392636942E0,-8.353336155E-2,-7.131642103E-2,7.406523079E-2
4.394951681E0,-7.879929990E-2,-7.498150319E-2,6.673506647E-2
4.397266421E0,-7.146912813E-2,-7.375980914E-2,6.429167092E-2
4.399581108E0,-6.673506647E-2,-7.742489129E-2,6.184828654E-2
4.401895848E0,-6.306997687E-2,-8.246438205E-2,5.925218388E-2
4.404210535E0,-5.589252338E-2,-8.490777016E-2,5.680879578E-2
4.406525275E0,-5.238015205E-2,-9.116895497E-2,5.558710173E-2
4.408840015E0,-4.749337584E-2,-1.010952219E-1,5.436540768E-2
4.411154702E0,-4.275930673E-2,-1.097997949E-1,5.558710173E-2
4.413469442E0,-4.031591862E-2,-1.223221645E-1,5.436540768E-2
4.415784129E0,-4.031591862E-2,-1.298050433E-1,5.176930502E-2
4.418098869E0,-4.031591862E-2,-1.385096163E-1,5.176930502E-2
4.420413556E0,-4.382828996E-2,-1.472141892E-1,4.932591692E-2
4.422728296E0,-4.856235534E-2,-1.496575773E-1,4.428642616E-2
4.425043035E0,-5.222744122E-2,-1.484358907E-1,3.939964995E-2
4.427357723E0,-5.818320066E-2,-1.458397806E-1,3.329117596E-2
4.429672463E0,-6.780404598E-2,-1.408002973E-1,2.840439789E-2
4.431987150E0,-7.986827940E-2,-1.308740228E-1,2.107422985E-2
4.434301890E0,-9.193251282E-2,-1.171299592E-1,1.496575773E-2
4.436616629E0,-1.062874198E-1,-1.020114943E-1,8.857285604E-3
4.438931317E0,-1.195733473E-1,-8.704573661E-2,3.054236295E-4
4.441246056E0,-1.316375881E-1,-7.085828483E-2,-9.468132630E-3
4.443560744E0,-1.437018216E-1,-5.451811850E-2,-1.801999472E-2
4.445875483E0,-1.557660550E-1,-3.955236077E-2,-2.779355086E-2
4.448190223E0,-1.606528312E-1,-2.580829710E-2,-3.878879920E-2
4.450504910E0,-1.641651988E-1,-1.206423342E-2,-4.734066129E-2
4.452819650E0,-1.678302884E-1,2.901524538E-3,-5.589252338E-2
4.455134390E0,-1.667613089E-1,1.420219894E-2,-6.322269142E-2
4.457449077E0,-1.620272398E-1,2.672456764E-2,-6.933116168E-2
4.459763817E0,-1.572931707E-1,3.802524135E-2,-7.406523079E-2
4.462078504E0,-1.513374150E-1,4.917320609E-2,-7.528692484E-2
4.464393244E0,-1.441599578E-1,6.047387794E-2,-7.773031294E-2
4.466707931E0,-1.382041872E-1,7.406523079E-2,-8.002099395E-2
4.469022671E0,-1.285833418E-1,9.025268257E-2,-7.757759839E-2
4.471337410E0,-1.201841980E-1,1.041494608E-1,-7.742489129E-2
4.473652098E0,-1.119377613E-1,1.203369126E-1,-7.727217674E-2
4.475966838E0,-1.023169160E-1,1.340809762E-1,-7.482878864E-2
4.478281577E0,-9.513945878E-2,1.490467340E-1,-7.345438004E-2
4.480596265E0,-8.796200156E-2,1.589729935E-1,-7.101099193E-2
4.482911004E0,-7.849387079E-2,1.714953631E-1,-6.841489673E-2
4.485225692E0,-7.009471953E-2,1.826433241E-1,-6.352811307E-2
4.487540431E0,-6.047387794E-2,1.925695986E-1,-5.726693198E-2
4.489855119E0,-5.451811850E-2,2.012741715E-1,-5.100574717E-2
4.492169858E0,-4.734066129E-2,2.087570578E-1,-4.367557913E-2
4.494484598E0,-4.138490185E-2,2.124221325E-1,-3.756710514E-2
4.496799285E0,-3.649812192E-2,2.136438340E-1,-3.008422814E-2
4.499114025E0,-3.176405653E-2,2.110477239E-1,-2.031067200E-2
4.501428765E0,-2.809897438E-2,2.072299272E-1,-1.175880991E-2
4.503743452E0,-2.199050039E-2,2.009687424E-1,-1.985253533E-3
4.506058192E0,-1.236965694E-2,1.896680743E-1,7.788302377E-3
4.508372879E0,-3.970507067E-3,1.785201132E-1,1.771457121E-2
4.510687619E0,6.872031838E-3,1.659977436E-1,2.626643144E-2
4.513002358E0,1.649287529E-2,1.522536725E-1,3.481829539E-2
4.515317046E0,2.977880463E-2,1.346918195E-1,4.459185153E-2
4.517631785E0,4.779879749E-2,1.146865711E-1,5.314370990E-2
4.519946473E0,6.459710002E-2,9.330692142E-2,6.047387794E-2
4.522261213E0,8.261708915E-2,7.085828483E-2,6.520794332E-2
4.524575952E0,1.007898003E-1,4.337015375E-2,7.375980914E-2
4.526890640E0,1.212531775E-1,1.221694518E-2,7.864658535E-2
4.529205379E0,1.417165697E-1,-1.771457121E-2,8.231166750E-2
4.531520067E0,1.669140160E-1,-4.764608666E-2,8.215895295E-2
4.533834806E0,1.898207814E-1,-7.879929990E-2,8.215895295E-2
4.536149546E0,2.150182426E-1,-1.087308154E-1,7.956285775E-2
4.538464233E0,2.367033064E-1,-1.374406368E-1,7.589777559E-2
4.540778973E0,2.594573796E-1,-1.673721522E-1,7.330167294E-2
4.543093660E0,2.823641598E-1,-1.934858710E-1,6.963659078E-2
4.545408400E0,3.003841341E-1,-2.183778882E-1,6.704048812E-2
4.547723140E0,3.184041381E-1,-2.432699203E-1,6.581879407E-2
4.550037827E0,3.352024257E-1,-2.632751763E-1,6.337540597E-2
4.552352567E0,3.472666740E-1,-2.845021188E-1,6.200099736E-2
4.554667254E0,3.568875194E-1,-3.043546379E-1,5.955760926E-2
4.556981994E0,3.640649617E-1,-3.219164908E-1,5.833591148E-2
4.559296733E0,3.629959822E-1,-3.405473530E-1,5.696150661E-2
4.561611421E0,3.617742956E-1,-3.542914093E-1,5.696150661E-2
4.563926160E0,3.545968235E-1,-3.692571819E-1,5.558710173E-2
4.566240848E0,3.474193811E-1,-3.804051280E-1,5.176930502E-2
4.568555588E0,3.402419090E-1,-3.866663277E-1,5.176930502E-2
4.570870327E0,3.283303976E-1,-3.891097009E-1,4.810422286E-2
4.573185015E0,3.211529553E-1,-3.854446113E-1,5.176930502E-2
4.575499754E0,3.150444627E-1,-3.791834414E-1,5.421269313E-2
4.577814442E0,3.090887070E-1,-3.692571819E-1,5.787777901E-2
4.580129181E0,3.078670204E-1,-3.567348123E-1,6.291726977E-2
4.582443921E0,3.078670204E-1,-3.443651497E-1,7.146912813E-2
4.584758608E0,3.090887070E-1,-3.293993771E-1,7.650861889E-2
4.587073348E0,3.150444627E-1,-3.170297146E-1,8.261708915E-2
4.589388035E0,3.210002482E-1,-3.032856584E-1,9.254335612E-2
4.591702775E0,3.293993771E-1,-2.896943092E-1,1.036913246E-1
4.594017463E0,3.365768492E-1,-2.747285664E-1,1.111742035E-1
4.596332202E0,3.472666740E-1,-2.597627938E-1,1.186570823E-1
4.598646942E0,3.556658030E-1,-2.449497581E-1,1.247655526E-1
4.600961629E0,3.687990308E-1,-2.299840003E-1,1.298050433E-1
4.603276369E0,3.843756318E-1,-2.150182426E-1,1.299577504E-1
4.605591108E0,3.999522328E-1,-2.000524700E-1,1.299577504E-1
4.607905796E0,4.165978432E-1,-1.850867122E-1,1.288887709E-1
4.610220535E0,4.346178174E-1,-1.701209545E-1,1.253764033E-1
4.612535223E0,4.524851143E-1,-1.513374150E-1,1.204896197E-1
4.614849963E0,4.715740979E-1,-1.351499557E-1,1.169772521E-1
4.617164702E0,4.895940721E-1,-1.177408099E-1,1.122431830E-1
4.619479390E0,5.037962794E-1,-1.027750522E-1,1.061347127E-1
4.621794129E0,5.158604980E-1,-8.643488586E-2,9.773556143E-2
4.624108817E0,5.216635466E-1,-7.391251624E-2,9.040539712E-2
4.626423556E0,5.265503526E-1,-6.398624927E-2,8.185353130E-2
