"Time (s)","Acceleration x (m/s^2)","Acceleration y (m/s^2)","Acceleration z (m/s^2)"
6.821670000E-3,2.387019157E0,8.997409821E0,3.119644880E0
8.835798000E-3,2.398990154E0,9.033323288E0,3.112462282E0
1.081940900E-2,2.375048161E0,9.078812599E0,3.155557871E0
1.283353600E-2,2.367865562E0,9.076418877E0,3.169923067E0
1.481714800E-2,2.358288765E0,9.076418877E0,3.241749048E0
1.683127500E-2,2.319981337E0,9.052476883E0,3.330334663E0
1.881488700E-2,2.310404539E0,9.033323288E0,3.363853455E0
2.082901400E-2,2.260126352E0,9.002198219E0,3.442862034E0
2.281262500E-2,2.212242365E0,8.949525833E0,3.519476414E0
2.482675300E-2,2.178723574E0,8.916007042E0,3.552995205E0
2.681036400E-2,2.138022184E0,8.851364136E0,3.598485231E0
2.882449100E-2,2.082955360E0,8.798690796E0,3.648763418E0
3.080810300E-2,2.078166962E0,8.769960403E0,3.682282209E0
3.282223000E-2,2.080561161E0,8.726864815E0,3.773261786E0
3.480584200E-2,2.039859772E0,8.700529099E0,3.914519787E0
3.681997000E-2,1.970427990E0,8.755595207E0,3.983951569E0
3.880358000E-2,1.865083098E0,8.865729332E0,4.146757126E0
4.081770900E-2,1.872265697E0,8.899248123E0,4.350264549E0
4.280131900E-2,1.884236693E0,8.906430244E0,4.522646904E0
4.481544700E-2,1.927332401E0,8.911218643E0,4.601655483E0
4.679905800E-2,1.965639591E0,8.932766914E0,4.795586109E0
4.881318600E-2,2.037465572E0,8.944737434E0,4.953603268E0
5.082731300E-2,2.085349798E0,8.935160637E0,5.020640850E0
5.281092500E-2,2.164358377E0,8.918401718E0,5.173870087E0
5.482505200E-2,2.250549555E0,8.916007042E0,5.295974255E0
5.680866300E-2,2.308010340E0,8.908824921E0,5.343858242E0
5.882279100E-2,2.367865562E0,8.908824921E0,5.430049419E0
6.080640200E-2,2.427720547E0,8.911218643E0,5.465962410E0
6.282052900E-2,2.454056740E0,8.904036522E0,5.477933407E0
6.480414100E-2,2.497152328E0,8.884882927E0,5.511452198E0
6.681826800E-2,2.566584110E0,8.894459724E0,5.573701382E0
6.880188000E-2,2.585737944E0,8.889671326E0,5.597643375E0
7.081600700E-2,2.609679937E0,8.918401718E0,5.676652431E0
7.279961800E-2,2.640804529E0,8.985439301E0,5.808333397E0
7.481374600E-2,2.667140722E0,9.016563416E0,5.894524574E0
7.679735700E-2,2.691082716E0,9.097966194E0,6.045359135E0
7.881148400E-2,2.693476915E0,9.198522568E0,6.169857979E0
8.079509600E-2,2.674323320E0,9.327810287E0,6.299144745E0
8.280922300E-2,2.655169725E0,9.382876396E0,6.361393929E0
8.479283500E-2,2.616862535E0,9.512163162E0,6.466738701E0
8.680696200E-2,2.576161146E0,9.617507935E0,6.536170483E0
8.879057300E-2,2.561795712E0,9.655815125E0,6.572083473E0
9.080470000E-2,2.516305923E0,9.746794701E0,6.603208065E0
9.278831200E-2,2.480392933E0,9.832986832E0,6.596025467E0
9.480243900E-2,2.461239338E0,9.859322548E0,6.586448669E0
9.678605100E-2,2.408566952E0,9.926360130E0,6.550535679E0
9.880017900E-2,2.391807556E0,1.000536919E1,6.493074894E0
1.007837900E-1,2.379836559E0,1.002931118E1,6.447585106E0
1.027979180E-1,2.382230759E0,1.004367638E1,6.327875137E0
1.047815280E-1,2.372653961E0,1.003888798E1,6.162675381E0
1.067956560E-1,2.379836559E0,1.002212811E1,6.062118530E0
1.087792670E-1,2.382230759E0,9.957485199E0,5.803544998E0
1.107933950E-1,2.425326347E0,9.837775230E0,5.513846397E0
1.127770060E-1,2.442085743E0,9.648633003E0,5.365406036E0
1.147911340E-1,2.444479942E0,9.552865028E0,5.066130638E0
1.168052610E-1,2.466027737E0,9.342175484E0,4.699818134E0
1.187888730E-1,2.497152328E0,9.097966194E0,4.319139957E0
1.208030000E-1,2.533065319E0,8.956708908E0,4.134786129E0
1.227866110E-1,2.583343744E0,8.669404030E0,3.775655985E0
1.248007390E-1,2.681505919E0,8.389283180E0,3.421314240E0
1.267843500E-1,2.736572504E0,8.267178535E0,3.268085241E0
1.287984770E-1,2.849100113E0,8.042123795E0,2.975992680E0
1.307820890E-1,2.918531895E0,7.735665798E0,2.667140722E0
1.327962160E-1,2.767697096E0,7.505822182E0,2.442085743E0
1.347798280E-1,2.154781580E0,7.156269073E0,1.786074519E0
1.367939550E-1,2.343923569E0,6.873753071E0,1.429338455E0
1.387775660E-1,2.607285738E0,6.794744492E0,1.391031146E0
1.407916930E-1,3.093308687E0,6.749254704E0,1.448492050E0
1.427753050E-1,3.485957623E0,6.766014099E0,1.623268723E0
1.447894320E-1,3.672705412E0,6.780379295E0,1.702277422E0
1.467730440E-1,4.079719543E0,6.792350292E0,1.877054095E0
1.487871710E-1,4.508281708E0,6.768408298E0,1.999158382E0
1.507707820E-1,4.730942726E0,6.710947514E0,2.066195965E0
1.527849100E-1,5.145139217E0,6.663063526E0,2.082955360E0
1.547685210E-1,5.556941986E0,6.610390663E0,2.087743998E0
1.567826490E-1,5.997475147E0,6.531382084E0,2.106897593E0
1.587662600E-1,6.212953568E0,6.502651691E0,2.097320795E0
1.607803880E-1,6.619967937E0,6.454767704E0,2.047042370E0
1.627639990E-1,7.024587631E0,6.394912720E0,2.054224968E0
1.647781270E-1,7.230489254E0,6.366182327E0,2.070984364E0
1.667617370E-1,7.637503624E0,6.335057735E0,2.111685991E0
1.687758660E-1,8.003816605E0,6.282385349E0,2.233790159E0
1.707594760E-1,8.183381081E0,6.260837555E0,2.312798738E0
1.727736040E-1,8.501810074E0,6.234501362E0,2.489969730E0
1.747572150E-1,8.832210541E0,6.212953568E0,2.707842112E0
1.767713430E-1,8.975862503E0,6.205770969E0,2.801215887E0
1.787854700E-1,9.234436035E0,6.244078159E0,2.949656487E0
1.807690820E-1,9.394847870E0,6.234501362E0,3.069366693E0
1.827832090E-1,9.435548782E0,6.153098583E0,3.102885485E0
1.847668210E-1,9.354146004E0,6.088454723E0,3.069366693E0
1.867809480E-1,9.200917244E0,5.944802761E0,2.908955097E0
1.887645590E-1,8.920795441E0,5.813121796E0,2.712630510E0
1.907786860E-1,8.753201485E0,5.731719017E0,2.580949545E0
1.927622980E-1,8.396465302E0,5.576095581E0,2.276885748E0
1.947764250E-1,7.943961143E0,5.384559631E0,1.977610588E0
1.967600370E-1,7.726089001E0,5.276820660E0,1.819593310E0
1.987741640E-1,7.331045628E0,5.066130638E0,1.510741234E0
2.007577750E-1,7.019799232E0,4.831499100E0,1.261744261E0
2.027719030E-1,6.902483463E0,4.649539471E0,1.130063176E0
2.047555140E-1,6.596025467E0,4.343081951E0,7.900865674E-1
2.067696410E-1,6.289567947E0,4.249708176E0,5.458779931E-1
2.087532530E-1,6.200982571E0,4.216189384E0,4.453215301E-1
2.107673800E-1,6.038176537E0,4.192247391E0,3.088520169E-1
2.127815080E-1,5.834669590E0,4.244919777E0,2.035071403E-1
2.147651190E-1,5.808333397E0,4.216189384E0,1.771709323E-1
2.167792470E-1,5.887341976E0,4.118026733E0,2.753331959E-1
2.187628590E-1,5.971138954E0,4.094084740E0,4.357447028E-1
2.207769860E-1,6.019022942E0,4.149151325E0,5.793967843E-1
2.227605970E-1,6.095637321E0,4.201824188E0,6.679822803E-1
2.247747240E-1,6.153098583E0,4.314351559E0,9.241618514E-1
2.267583360E-1,6.236895561E0,4.623203278E0,1.731007814E0
2.287724630E-1,6.361393929E0,4.831499100E0,2.315192938E0
2.307560750E-1,6.517016888E0,4.817133904E0,2.935291290E0
2.327702020E-1,6.435614109E0,4.989516258E0,3.612850428E0
2.347538130E-1,6.287173748E0,5.066130638E0,3.603273630E0
2.367679410E-1,6.011840343E0,5.161899090E0,3.574543238E0
2.387515520E-1,5.743690014E0,5.331887245E0,3.766079187E0
2.407656790E-1,5.602431774E0,5.422866821E0,3.878606796E0
2.427492910E-1,5.248090267E0,5.628767967E0,4.161122322E0
2.447634180E-1,4.783615112E0,5.841852188E0,4.383783340E0
2.467470300E-1,4.537012100E0,5.990292549E0,4.496310711E0
2.487611570E-1,4.060565948E0,6.347028732E0,4.692635536E0
2.507447680E-1,3.615244627E0,6.706159115E0,4.881777287E0
2.527588960E-1,3.404554844E0,6.873753071E0,4.979939461E0
2.547425070E-1,3.040636063E0,7.187393665E0,5.238513470E0
2.567566340E-1,2.779668093E0,7.359776020E0,5.671864033E0
2.587402460E-1,2.535459518E0,7.467514992E0,6.093243122E0
2.607543730E-1,2.403778553E0,7.515398979E0,6.282385349E0
2.627379850E-1,2.197877169E0,7.560888767E0,6.658275127E0
2.647521120E-1,2.042253971E0,7.536946774E0,6.904877663E0
2.667357230E-1,1.963245392E0,7.486668587E0,6.991068840E0
2.687498510E-1,1.848323703E0,7.429207802E0,7.137115479E0
2.707334620E-1,1.817199111E0,7.316680431E0,7.309497833E0
2.727475890E-1,1.790862918E0,7.252037048E0,7.376535416E0
2.747312010E-1,1.738190413E0,7.182605267E0,7.563282967E0
2.767453280E-1,1.687912226E0,7.122750282E0,7.841010571E0
2.787289400E-1,1.649604917E0,7.101202011E0,8.030152321E0
2.807430680E-1,1.505952835E0,7.077260017E0,8.528146744E0
2.827266780E-1,1.304839969E0,6.976703644E0,9.040505409E0
2.847408060E-1,1.170764685E0,6.584054470E0,9.181763649E0
2.867244170E-1,8.451532125E-1,5.521028996E0,9.399636269E0
2.887385450E-1,9.097966552E-1,4.568136692E0,9.991003990E0
2.907221560E-1,1.103726983E0,3.526659012E0,1.082897472E1
2.927362840E-1,1.695094824E0,2.990357876E0,1.126711273E1
2.947198950E-1,2.324769735E0,1.984793186E0,1.199495029E1
2.967340230E-1,2.837129116E0,1.335964561E0,1.232774448E1
2.987176330E-1,2.985569477E0,1.213860273E0,1.225831223E1
3.007317610E-1,2.549824715E0,1.431732655E0,1.158075333E1
3.027153720E-1,1.802833915E0,1.740584612E0,1.058716011E1
3.047295000E-1,1.458068848E0,1.774103403E0,1.004607010E1
3.067131110E-1,8.307880163E-1,1.697489023E0,9.193734169E0
3.087272390E-1,3.399766386E-1,1.570596337E0,8.781931877E0
3.107108490E-1,1.867477298E-1,1.529894829E0,8.686163902E0
3.127249780E-1,6.943184882E-2,1.462857246E0,8.609549522E0
3.147085880E-1,5.578489900E-1,1.936909199E0,8.868123055E0
3.167227160E-1,7.278373241E-1,2.082955360E0,8.805873871E0
3.187368430E-1,1.113303781E0,2.341529369E0,8.549694061E0
3.207204550E-1,1.462857246E0,2.580949545E0,8.288725853E0
3.227345820E-1,1.630451322E0,2.710236311E0,8.176198959E0
3.247181940E-1,1.956062794E0,2.961627483E0,8.008605003E0
3.267323210E-1,2.298433542E0,3.244143248E0,7.922413349E0
3.287159330E-1,2.475604534E0,3.569754839E0,7.915230751E0
3.307300600E-1,2.856282711E0,3.730166197E0,7.903259754E0
3.327136710E-1,3.256114244E0,4.055777550E0,7.917624950E0
3.347277980E-1,3.639186621E0,4.374206543E0,7.991845131E0
3.367114100E-1,3.818751812E0,4.546588898E0,8.037335396E0
3.387255370E-1,4.146757126E0,4.900930882E0,8.159439087E0
3.407091490E-1,4.364629745E0,5.262455463E0,8.334216118E0
3.427232770E-1,4.419696331E0,5.475539207E0,8.432378769E0
3.447068870E-1,4.496310711E0,5.925649166E0,8.662221909E0
3.467210160E-1,4.572925091E0,6.399701118E0,8.848969460E0
3.487046260E-1,4.608838081E0,6.631938934E0,8.916007042E0
3.507187540E-1,4.644751072E0,7.070077419E0,8.983044624E0
3.527023650E-1,4.683058739E0,7.448361397E0,8.959102631E0
3.547164930E-1,4.687847137E0,7.594407558E0,8.923190117E0
3.567001040E-1,4.692635536E0,7.821856976E0,8.825027466E0
3.587142320E-1,4.692635536E0,7.941566944E0,8.633491516E0
3.606978420E-1,4.673481941E0,7.977479935E0,8.480262756E0
3.627119710E-1,4.625597477E0,8.010998726E0,8.061277390E0
3.646955810E-1,4.529829502E0,8.006210327E0,7.505822182E0
3.667097090E-1,4.402936935E0,7.967903137E0,6.933608055E0
3.686933200E-1,4.314351559E0,7.922413349E0,6.653486729E0
3.707074480E-1,4.146757126E0,7.517793179E0,5.951985359E0
3.726910590E-1,3.780444384E0,7.072471619E0,5.233725071E0
3.747051870E-1,3.548206806E0,6.821080685E0,5.003881454E0
3.766887970E-1,3.153163671E0,6.351817131E0,4.656722069E0
3.787029260E-1,2.954444885E0,6.148310184E0,4.606443882E0
3.806865360E-1,2.911349297E0,6.107608318E0,4.663905144E0
3.827006640E-1,2.806004286E0,6.064512730E0,4.733336926E0
3.846842750E-1,2.667140722E0,6.045359135E0,4.666299343E0
3.866984030E-1,2.592920542E0,6.014234543E0,4.580107689E0
3.886820140E-1,2.430114746E0,5.896918774E0,4.434061527E0
3.906961420E-1,2.394201756E0,5.430049419E0,3.998316765E0
3.926797520E-1,2.583343744E0,5.236119270E0,3.823540211E0
3.946938800E-1,3.213018656E0,4.853046894E0,3.892971992E0
3.966774910E-1,4.034229755E0,4.544194698E0,4.486733913E0
3.986916190E-1,4.465186119E0,4.249708176E0,5.106832027E0
4.006752300E-1,5.274426460E0,4.094084740E0,5.377377033E0
4.026893580E-1,5.803544998E0,3.816357613E0,5.710171223E0
4.046729680E-1,5.983109951E0,3.564966440E0,5.810727596E0
4.066870970E-1,5.971138954E0,3.462015629E0,5.834669590E0
4.086707070E-1,5.789179802E0,3.265691042E0,5.908889771E0
4.106848350E-1,5.518634796E0,3.098097086E0,6.076483727E0
4.126684460E-1,5.358223438E0,2.980781078E0,6.162675381E0
4.146825740E-1,5.073313236E0,2.631227732E0,6.370970726E0
4.166661850E-1,4.577713490E0,1.970427990E0,6.282385349E0
4.186803130E-1,4.249708176E0,1.616086125E0,6.042964935E0
4.206639230E-1,3.991134167E0,1.352723956E0,5.652710438E0
4.226780520E-1,3.885789394E0,1.532289028E0,5.568912983E0
4.246616620E-1,3.888183594E0,1.635239720E0,5.583278179E0
4.266757900E-1,4.067748547E0,1.747767210E0,5.523423195E0
4.286594010E-1,4.527435303E0,1.745373011E0,5.846640587E0
4.306735290E-1,4.788403511E0,1.757344007E0,6.086060524E0
4.326571400E-1,5.295974255E0,1.860294700E0,6.708553314E0
4.346712680E-1,5.731719017E0,2.090138197E0,7.486668587E0
4.366548780E-1,5.894524574E0,2.473210335E0,8.319850922E0
4.386690070E-1,6.141127586E0,2.698265314E0,8.755595207E0
4.406526170E-1,6.373364925E0,3.210624456E0,9.684545517E0
4.426667450E-1,6.627150536E0,3.687070608E0,1.047702694E1
4.446503560E-1,6.754043102E0,3.885789394E0,1.069011021E1
4.466644840E-1,6.971915245E0,4.278438568E0,1.092713642E1
4.486480950E-1,7.175422668E0,4.639962673E0,1.094629002E1
4.506622230E-1,7.242460251E0,4.807557106E0,1.089840603E1
4.526458330E-1,7.321468830E0,5.154716492E0,1.074278259E1
4.546599610E-1,7.331045628E0,5.556941986E0,1.058237171E1
4.566435720E-1,7.299921036E0,5.750872612E0,1.049378586E1
4.586577000E-1,7.218518257E0,6.131550789E0,1.027830791E1
4.606413110E-1,7.024587631E0,6.452373505E0,1.009634876E1
4.626554390E-1,6.859387875E0,6.591237068E0,1.002931118E1
4.646390500E-1,6.464344501E0,6.845022678E0,9.880870819E0
4.666531780E-1,5.975927353E0,7.091625214E0,9.749189377E0
4.686367880E-1,5.724536419E0,7.024587631E0,9.677363396E0
4.706509160E-1,5.341464043E0,6.787561893E0,9.504981041E0
4.726345270E-1,5.039794445E0,6.641515732E0,9.275136948E0
4.746486550E-1,4.817133904E0,6.488286495E0,9.064447403E0
4.766322660E-1,4.735731125E0,6.414066315E0,8.990227699E0
4.786463940E-1,4.627991676E0,6.258443356E0,8.927978516E0
4.806300040E-1,4.570530891E0,6.038176537E0,8.872911453E0
4.826441330E-1,4.558559895E0,5.920860767E0,8.848969460E0
4.846277430E-1,4.558559895E0,5.674258232E0,8.836998940E0
4.866418710E-1,4.568136692E0,5.408501625E0,8.798690796E0
4.886254820E-1,4.575319290E0,5.272032261E0,8.743624687E0
4.906396100E-1,4.618414879E0,4.991910458E0,8.530540466E0
4.926232210E-1,4.668693542E0,4.723760128E0,8.255207062E0
4.946373490E-1,4.699818134E0,4.589684486E0,8.090007782E0
4.966209590E-1,4.776432514E0,4.350264549E0,7.702147007E0
4.986350880E-1,4.881777287E0,4.118026733E0,7.321468830E0
5.006186980E-1,4.939238071E0,4.000710964E0,7.139509678E0
5.026328260E-1,5.063736439E0,3.756502390E0,6.794744492E0
5.046164370E-1,5.123591423E0,3.526659012E0,6.459556103E0
5.066305650E-1,5.116408825E0,3.311181068E0,6.387730122E0
5.086446930E-1,5.123591423E0,3.210624456E0,6.540958881E0
5.106283040E-1,5.207388878E0,3.040636063E0,6.703764915E0
5.126119140E-1,5.432443619E0,2.877830505E0,6.562506676E0
5.146260420E-1,5.585672379E0,2.806004286E0,6.447585106E0
5.166096530E-1,5.906495571E0,2.662352324E0,6.210559368E0
5.186237810E-1,6.275202751E0,2.547430515E0,6.081272125E0
5.206073920E-1,6.409277916E0,2.533065319E0,6.102819920E0
5.226215200E-1,6.708553314E0,2.533065319E0,6.354211330E0
5.246051310E-1,7.077260017E0,2.559401512E0,6.811503887E0
5.266192590E-1,7.180211067E0,2.595314741E0,7.070077419E0
5.286028700E-1,7.175422668E0,2.743755102E0,7.678205013E0
5.306169970E-1,7.070077419E0,2.918531895E0,8.535328865E0
5.326006090E-1,6.986280441E0,3.016694069E0,9.107542992E0
5.346147360E-1,6.737283707E0,3.236960649E0,1.028549004E1
5.365983480E-1,6.457161903E0,3.459621429E0,1.123838234E1
5.386124750E-1,6.320692539E0,3.562572241E0,1.167412758E1
5.405960860E-1,6.088454723E0,3.708618402E0,1.243069553E1
5.426102140E-1,5.906495571E0,3.847482204E0,1.310585976E1
5.445938250E-1,5.834669590E0,3.921702385E0,1.369243908E1
5.466079520E-1,5.698200226E0,3.952826977E0,1.392228317E1
5.485915640E-1,5.556941986E0,4.000710964E0,1.414254951E1
5.506056910E-1,5.465962410E0,3.940855980E0,1.410903072E1
5.525893030E-1,5.458779812E0,3.833117008E0,1.402044487E1
5.546034300E-1,5.391742229E0,3.579331636E0,1.367807388E1
5.565870410E-1,5.315127850E0,3.349488258E0,1.317768574E1
5.586011690E-1,5.295974255E0,3.222595453E0,1.288559341E1
5.605847800E-1,5.200206280E0,3.028665066E0,1.231577396E1
5.625989070E-1,5.066130638E0,2.918531895E0,1.190875912E1
5.646130350E-1,4.970362663E0,2.875436306E0,1.174834728E1
5.665966460E-1,4.826710701E0,2.791639090E0,1.175313568E1
5.686107740E-1,4.599261284E0,2.686294317E0,1.285446930E1
5.705943850E-1,4.398148537E0,2.638410330E0,1.382172680E1
5.726085130E-1,3.758896589E0,2.516305923E0,1.661097145E1
5.745921230E-1,3.363853455E0,2.293645144E0,1.819593239E1
5.766062520E-1,3.421314240E0,2.157175779E0,1.779849625E1
5.785898620E-1,3.873818398E0,1.857900500E0,1.519360352E1
5.806039900E-1,4.347870350E0,1.587355733E0,1.207395935E1
5.825876010E-1,4.589684486E0,1.460463047E0,9.653421402E0
5.846017290E-1,4.644751072E0,1.450886250E0,8.798690796E0
5.865853400E-1,4.692635536E0,1.508347034E0,7.783549786E0
5.885994680E-1,4.699818134E0,1.620874524E0,7.563282967E0
5.905830790E-1,4.742913723E0,1.699883223E0,7.668628216E0
5.925972070E-1,4.941632271E0,1.869871497E0,8.113949776E0
5.945808180E-1,5.231330872E0,2.059013367E0,8.690952301E0
5.965949450E-1,5.418078423E0,2.154781580E0,8.923190117E0
5.985785570E-1,5.825092793E0,2.355894566E0,9.179368973E0
6.005926840E-1,6.165069580E0,2.607285738E0,9.136273384E0
6.025762960E-1,6.296750546E0,2.719813108E0,9.021351814E0
6.045904230E-1,6.720524311E0,2.906560898E0,8.669404030E0
6.065740340E-1,7.366958618E0,3.047818661E0,8.391676903E0
6.085881620E-1,7.721300602E0,3.124433279E0,8.269572258E0
6.105717730E-1,8.200140953E0,3.404554844E0,8.109161377E0
6.125859000E-1,7.994239330E0,3.835511208E0,7.984662533E0
6.145695120E-1,7.910442352E0,4.237737179E0,7.987056732E0
6.165836390E-1,7.733271599E0,4.424484730E0,7.948749542E0
6.185672510E-1,7.548917770E0,4.826710701E0,7.706935406E0
6.205813780E-1,7.225700855E0,5.274426460E0,7.242460251E0
6.225649890E-1,7.017405033E0,5.504269600E0,6.983886242E0
6.245791160E-1,6.469132900E0,5.959167957E0,6.517016888E0
6.265627280E-1,5.793968201E0,6.287173748E0,6.227318764E0
6.285768550E-1,5.487510204E0,6.387730122E0,6.234501362E0
6.305604670E-1,4.967968464E0,6.442796707E0,6.605602264E0
6.325745940E-1,4.563348293E0,6.308721542E0,7.141903877E0
6.345582060E-1,4.405331135E0,6.169857979E0,7.388506413E0
6.365723330E-1,4.247313976E0,5.880159378E0,7.757213593E0
6.385559440E-1,4.283226967E0,5.679046631E0,7.960720539E0
6.405700710E-1,4.347870350E0,5.607220173E0,7.999027729E0
6.425536830E-1,4.508281708E0,5.554547787E0,7.943961143E0
6.445678100E-1,4.771644115E0,5.571307182E0,7.824251175E0
6.465514220E-1,4.927267075E0,5.609614372E0,7.783549786E0
6.485655490E-1,5.238513470E0,5.758055210E0,7.706935406E0
6.505491600E-1,5.602431774E0,5.949591160E0,7.654263020E0
6.525632890E-1,5.798756599E0,6.172252178E0,7.637503624E0
6.545468990E-1,6.184223175E0,6.311115742E0,7.589619160E0
6.565610270E-1,6.545747280E0,6.631938934E0,7.364564419E0
6.585446380E-1,6.801927090E0,6.943184853E0,6.895300865E0
6.605587660E-1,6.928819656E0,7.110779285E0,6.605602264E0
6.625423770E-1,7.158663273E0,7.457938194E0,6.016628742E0
6.645565050E-1,7.359776020E0,7.824251175E0,5.530605793E0
6.665401150E-1,7.426813602E0,8.032546997E0,5.355829239E0
6.685542440E-1,7.477091789E0,8.482656479E0,5.145139217E0
6.705378540E-1,7.366958618E0,8.918401718E0,5.054159641E0
6.725519820E-1,7.244854450E0,9.119514465E0,5.027823448E0
6.745355930E-1,6.835445881E0,9.516951561E0,5.027823448E0
6.765497210E-1,6.232107162E0,9.830592155E0,5.092466831E0
6.785333320E-1,5.861005783E0,9.955090523E0,5.164293289E0
6.805474600E-1,4.948814869E0,1.012507915E1,5.384559631E0
6.825615870E-1,4.012681961E0,1.025915432E1,5.753266811E0
6.845451980E-1,3.622427225E0,1.024239445E1,5.997475147E0
6.865593260E-1,2.956839085E0,1.013226128E1,6.507440090E0
6.885429370E-1,2.485181332E0,9.895236015E0,6.921637058E0
6.905570640E-1,2.236184359E0,9.550470352E0,7.196970463E0
6.925406760E-1,2.207453966E0,9.346963882E0,7.299921036E0
6.945548030E-1,2.219424963E0,8.882488251E0,7.340622425E0
6.965384150E-1,2.375048161E0,8.372523308E0,7.256825447E0
6.985525420E-1,2.492363930E0,8.118738174E0,7.187393665E0
7.005361530E-1,2.750937700E0,7.620744228E0,7.031770229E0
7.025502810E-1,2.825158119E0,7.151480675E0,6.864176273E0
7.045338920E-1,2.762908697E0,6.950367451E0,6.751648903E0
7.065480190E-1,2.794033289E0,6.497863293E0,6.572083473E0
7.085316310E-1,3.035847664E0,5.975927353E0,6.536170483E0
7.105457580E-1,3.196259260E0,5.707777023E0,6.540958881E0
7.125293700E-1,3.538630009E0,5.219359875E0,6.533776283E0
7.145434980E-1,3.804386616E0,4.819528103E0,6.526593685E0
7.165271080E-1,3.873818398E0,4.663905144E0,6.500257492E0
7.185412370E-1,3.983951569E0,4.479551315E0,6.473921299E0
7.205248470E-1,4.039018154E0,4.357447147E0,6.507440090E0
7.225389750E-1,4.024652958E0,4.362235546E0,6.557718277E0
7.245225860E-1,3.950432777E0,4.412513733E0,6.672640324E0
7.265367140E-1,3.801992416E0,4.577713490E0,6.787561893E0
7.285508410E-1,3.574543238E0,4.836287498E0,6.938396454E0
7.305344530E-1,3.469198227E0,4.979939461E0,7.015010834E0
7.325485800E-1,3.270479441E0,5.307945251E0,7.206547260E0
7.345321910E-1,3.148375273E0,5.633556366E0,7.455543995E0
7.365463190E-1,3.100491285E0,5.789179802E0,7.584830761E0
7.385299300E-1,2.985569477E0,6.107608318E0,7.814674377E0
7.405440570E-1,2.738966703E0,6.449979305E0,7.999027729E0
7.425276690E-1,2.559401512E0,6.624756336E0,8.063671112E0
7.445417960E-1,2.082955360E0,7.005434036E0,8.121131897E0
7.465254080E-1,1.520318031E0,7.422025204E0,8.159439087E0
7.485395350E-1,1.261744261E0,7.608773232E0,8.192957878E0
7.505231460E-1,8.283938169E-1,7.987056732E0,8.240841866E0
7.525372740E-1,5.434837937E-1,8.331821442E0,8.322244644E0
7.545208850E-1,4.620809257E-1,8.475474358E0,8.327033043E0
7.565350120E-1,4.118026793E-1,8.750806808E0,8.317456245E0
7.585186240E-1,4.692635238E-1,8.961497307E0,8.233659744E0
7.605327510E-1,5.147533417E-1,9.107542992E0,8.008605003E0
7.625163630E-1,6.009446383E-1,9.162610054E0,7.857769966E0
7.645304900E-1,6.751648784E-1,9.234436035E0,7.455543995E0
7.665141010E-1,7.182605267E-1,9.203310966E0,6.921637058E0
7.685282280E-1,7.326257229E-1,9.181763649E0,6.610390663E0
7.705118400E-1,8.355764151E-1,9.208099365E0,5.908889771E0
7.725259670E-1,1.058237195E0,9.234436035E0,5.137956619E0
7.745095790E-1,1.189918280E0,9.253589630E0,4.723760128E0
7.765237070E-1,1.477222443E0,9.294290543E0,3.849876404E0
7.785073180E-1,1.661576033E0,9.342175484E0,3.007117271E0
7.805214460E-1,1.699883223E0,9.346963882E0,2.612074137E0
7.825050560E-1,1.707065821E0,9.303867340E0,1.929726601E0
7.845191840E-1,1.623268723E0,9.287108421E0,1.424550056E0
7.865027950E-1,1.537077546E0,9.253589630E0,1.213860273E0
7.885169230E-1,1.357512355E0,9.160215378E0,9.097966552E-1
7.905005340E-1,1.254561663E0,9.054870605E0,8.283938169E-1
7.925146620E-1,1.218648672E0,9.006986618E0,8.547300100E-1
7.944982720E-1,1.156399369E0,8.880094528E0,1.041477680E0
7.965124010E-1,1.120486379E0,8.820239067E0,1.364694953E0
7.984960110E-1,1.065419793E0,8.798690796E0,1.776497602E0
8.005101390E-1,1.010353088E0,8.803479195E0,1.982398987E0
8.024937500E-1,8.978256583E-1,8.860940933E0,2.415749550E0
8.045078780E-1,8.403648138E-1,8.920795441E0,2.834734917E0
8.064914890E-1,8.092401624E-1,8.956708908E0,3.033453465E0
8.085056170E-1,7.230489254E-1,9.047688484E0,3.438073635E0
8.104892270E-1,6.081272364E-1,9.162610054E0,3.818751812E0
8.125033560E-1,5.339069963E-1,9.222464561E0,4.017470360E0
8.144869660E-1,3.854664862E-1,9.320627213E0,4.417302132E0
8.165010940E-1,2.154781520E-1,9.411606789E0,4.841075897E0
8.184847050E-1,1.005564705E-1,9.464279175E0,5.102043629E0
8.204988330E-1,-1.723825186E-1,9.576807022E0,5.714959621E0
8.224824440E-1,-4.285621047E-1,9.600749016E0,6.394912720E0
8.244965720E-1,-5.291185975E-1,9.586383820E0,6.754043102E0
8.264801820E-1,-6.751648784E-1,9.502586365E0,7.400477409E0
8.284943100E-1,-7.038952708E-1,9.296685219E0,7.891288757E0
8.304779210E-1,-6.272808313E-1,9.081207275E0,8.066065788E0
8.324920490E-1,-3.687070608E-1,8.939949036E0,8.197746277E0
8.344756600E-1,-9.337386489E-2,8.671798706E0,8.013393402E0
8.364897880E-1,1.532289088E-1,8.422801971E0,7.656657219E0
8.384733990E-1,2.537853718E-1,8.291120529E0,7.438784599E0
8.404875270E-1,4.118026793E-1,8.039729118E0,6.986280441E0
8.424711370E-1,5.913678408E-1,7.807491779E0,6.538564682E0
8.444852650E-1,7.254431248E-1,7.673416615E0,6.311115742E0
8.464688760E-1,1.053448796E0,7.436390400E0,5.858611584E0
8.484830040E-1,1.261744261E0,7.280767441E0,5.353435040E0
8.504666150E-1,1.331176162E0,7.249642849E0,5.066130638E0
8.524807430E-1,1.412579060E0,7.184999466E0,4.455609322E0
8.544948710E-1,1.525106430E0,7.180211067E0,3.881000996E0
8.564784820E-1,1.546654344E0,7.199364662E0,3.612850428E0
8.584926100E-1,1.515529633E0,7.280767441E0,3.083731890E0
8.604762200E-1,1.381454349E0,7.443572998E0,2.576161146E0
8.624903490E-1,1.300051570E0,7.544129372E0,2.336740971E0
8.644739590E-1,1.182735682E0,7.776367188E0,1.903390408E0
8.664880870E-1,1.091755986E0,8.018181801E0,1.561019540E0
8.684716980E-1,1.079784989E0,8.228871346E0,1.288080573E0
8.704858260E-1,1.096544385E0,8.312667847E0,1.170764685E0
8.724694370E-1,1.158793569E0,8.453926086E0,9.552865028E-1
8.744835650E-1,1.285686255E0,8.523358345E0,8.212111592E-1
8.764671750E-1,1.357512355E0,8.511386871E0,7.709329724E-1
8.784813030E-1,1.537077546E0,8.456320763E0,7.038952708E-1
8.804649140E-1,1.663970232E0,8.339004517E0,7.206547260E-1
8.824790420E-1,1.709460020E0,8.259995461E0,7.517793179E-1
8.844626530E-1,1.757344007E0,8.078036308E0,8.523358107E-1
8.864767810E-1,1.764526606E0,7.850587368E0,1.031900883E0
8.884603920E-1,1.747767210E0,7.721300602E0,1.122880578E0
8.904745200E-1,1.675941229E0,7.457938194E0,1.386242747E0
8.924581300E-1,1.623268723E0,7.218518257E0,1.750161409E0
8.944722580E-1,1.616086125E0,7.101202011E0,1.948880196E0
8.964558690E-1,1.606509328E0,6.912060261E0,2.355894566E0
8.984699970E-1,1.549048543E0,6.787561893E0,2.729389906E0
9.004536080E-1,1.496376038E0,6.754043102E0,2.877830505E0
9.024677360E-1,1.314416766E0,6.742072105E0,3.107673883E0
9.044513460E-1,1.041477680E0,6.782773495E0,3.270479441E0
9.064654750E-1,6.631938815E-1,6.749254704E0,3.342305660E0
9.084490850E-1,4.668693244E-1,6.706159115E0,3.356670856E0
9.104632130E-1,1.987187415E-1,6.698976517E0,3.397372246E0
9.124468240E-1,7.182604820E-2,6.866570473E0,3.442862034E0
9.144609520E-1,3.112462163E-2,6.959944248E0,3.445256233E0
9.164445630E-1,7.182605099E-3,7.127538681E0,3.428496838E0
9.184586910E-1,7.182604820E-2,7.362170219E0,3.404554844E0
9.204728190E-1,1.221042871E-1,7.469909191E0,3.361459255E0
9.224564300E-1,2.442085743E-1,7.663839817E0,3.153163671E0
9.244705580E-1,4.070142806E-1,7.838616371E0,2.856282711E0
9.264541680E-1,5.458779931E-1,7.958326340E0,2.693476915E0
9.284682960E-1,7.924807668E-1,8.240841866E0,2.396595955E0
9.304519070E-1,9.074024558E-1,8.580819130E0,2.099714994E0
9.324660350E-1,8.834604025E-1,8.786720276E0,1.958456993E0
9.344496460E-1,7.110779285E-1,9.191340446E0,1.661576033E0
9.364637740E-1,3.734954596E-1,9.619902611E0,1.223437071E0
9.384473840E-1,2.561795712E-1,9.825803757E0,6.919242740E-1
9.404615130E-1,4.046200812E-1,9.854534149E0,5.291185975E-1
9.424451230E-1,6.607996821E-1,9.921571732E0,3.782838583E-1
9.444592510E-1,6.967126727E-1,1.005325317E1,3.519476354E-1
9.464428620E-1,6.081272364E-1,1.013704967E1,3.687070608E-1
9.484569900E-1,4.501099288E-1,1.026154804E1,5.051765442E-1
9.504406010E-1,3.974374831E-1,1.039562416E1,7.685387731E-1
9.524547290E-1,4.094084799E-1,1.042914295E1,9.193734527E-1
9.544383390E-1,6.799532771E-1,1.042435455E1,2.164358377E0
9.564524680E-1,8.762778044E-1,1.051054573E1,3.962403774E0
9.584360780E-1,5.147533417E-1,1.066377449E1,2.885013103E0
9.604502060E-1,4.572925270E-1,1.070447540E1,1.309628367E0
9.624338170E-1,5.817909837E-1,1.070447540E1,1.455674648E0
9.644479450E-1,6.081272364E-1,1.070447540E1,1.745373011E0
9.664315560E-1,6.129156351E-1,1.066856289E1,2.296039343E0
9.684456840E-1,5.698199868E-1,1.053927612E1,2.406172752E0
9.704292940E-1,5.339069963E-1,1.046745014E1,2.341529369E0
9.724434230E-1,4.620809257E-1,1.030224991E1,2.209848166E0
9.744270330E-1,3.926490843E-1,1.013465595E1,2.183511972E0
9.764411610E-1,3.687070608E-1,9.986215591E0,2.171540976E0
9.784247720E-1,3.471592367E-1,9.916783333E0,2.161964178E0
9.804389000E-1,2.944868207E-1,9.765948296E0,2.140416384E0
9.824225110E-1,2.537853718E-1,9.586383820E0,2.188300371E0
9.844366390E-1,2.442085743E-1,9.493009567E0,2.212242365E0
9.864202490E-1,2.226607651E-1,9.263166428E0,2.233790159E0
9.884343770E-1,2.130839527E-1,9.002198219E0,2.319981337E0
9.904485060E-1,2.106897533E-1,8.863334656E0,2.377442360E0
9.924321160E-1,1.628057212E-1,8.602366447E0,2.477998734E0
9.944462440E-1,1.029506698E-1,8.291120529E0,2.609679937E0
9.964298550E-1,7.900865376E-2,8.149862289E0,2.671929121E0
9.984439830E-1,3.399766386E-1,7.958326340E0,2.901772499E0
1.000427594E0,4.836287498E-1,7.797914982E0,3.083731890E0
1.002441722E0,3.543418646E-1,7.747636795E0,3.162740469E0
1.004425332E0,-1.532289088E-1,7.611167431E0,3.366247654E0
1.006439461E0,-7.326257229E-1,7.493851185E0,3.600879431E0
1.008423071E0,-9.983820915E-1,7.424419403E0,3.720589399E0
1.010437199E0,-1.403002143E0,7.412448406E0,3.931279182E0
1.012420810E0,-1.661576033E0,7.395689011E0,4.072536945E0
1.014434938E0,-1.790862918E0,7.489062786E0,4.098873138E0
1.016418549E0,-1.831564307E0,7.575253963E0,4.060565948E0
1.018432677E0,-1.769315004E0,7.807491779E0,3.952826977E0
1.020416287E0,-1.493981838E0,8.087613106E0,3.797203779E0
1.022430415E0,-1.391031146E0,8.248024940E0,3.655946016E0
1.024414026E0,-1.151610970E0,8.592789650E0,3.327940464E0
1.026428154E0,-9.361328483E-1,8.951920509E0,2.930502892E0
1.028411765E0,-8.259995580E-1,9.124302864E0,2.710236311E0
1.030425893E0,-6.129156351E-1,9.459490776E0,2.274491549E0
1.032440021E0,-4.189853072E-1,9.761159897E0,1.795651317E0
1.034423632E0,-3.280056417E-1,9.890447617E0,1.541865945E0
1.036437760E0,-1.556231081E-1,1.015380955E1,1.007958889E0
1.038421370E0,-2.394201700E-3,1.039801788E1,4.501099288E-1
1.040435499E0,7.661445439E-2,1.051533413E1,1.580173075E-1
1.042419109E0,2.298433632E-1,1.070687008E1,-4.357447028E-1
1.044433237E0,4.477157295E-1,1.082658005E1,-9.864110947E-1
1.046416848E0,5.865794420E-1,1.089840603E1,-1.426944256E0
1.048430976E0,9.672574997E-1,1.092953110E1,-1.587355733E0
1.050414587E0,1.371877551E0,1.094150162E1,-1.764526606E0
1.052428715E0,1.656787634E0,1.094629002E1,-1.788468719E0
1.054412325E0,1.731007814E0,1.091755962E1,-1.728613615E0
1.056426454E0,1.793257117E0,1.082418633E1,-1.501164436E0
1.058410064E0,1.781286120E0,1.069250488E1,-1.180341482E0
1.060424192E0,1.714248419E0,1.060152531E1,-1.005564690E0
1.062407803E0,1.529894829E0,1.040280628E1,-6.200982332E-1
1.064421931E0,1.268926859E0,1.019451046E1,-1.939303428E-1
1.066405542E0,1.139639974E0,1.009156036E1,3.830722719E-2
1.068419670E0,8.738836050E-1,9.904812813E0,5.363011956E-1
1.070403280E0,5.841852427E-1,9.751583099E0,1.053448796E0
1.072417408E0,4.525041282E-1,9.682151794E0,1.312022567E0
1.074401019E0,2.011129409E-1,9.562441826E0,1.821987510E0
1.076415147E0,-1.268926859E-1,9.464279175E0,2.336740971E0
1.078398758E0,-3.232172430E-1,9.404424667E0,2.612074137E0
1.080412886E0,-7.517793179E-1,9.327810287E0,3.119644880E0
1.082396496E0,-1.278503656E0,9.200917244E0,3.505111217E0
1.084410625E0,-1.690306425E0,9.057265282E0,3.778050184E0
1.086394235E0,-1.788468719E0,8.985439301E0,3.916913986E0
1.088408363E0,-1.910573006E0,8.844181061E0,4.048594952E0
1.090391974E0,-1.922544003E0,8.705317497E0,4.031835556E0
1.092406102E0,-1.889025092E0,8.650250435E0,3.998316765E0
1.094389713E0,-1.788468719E0,8.547300339E0,3.933673382E0
1.096403841E0,-1.675941229E0,8.501810074E0,3.979163170E0
1.098387451E0,-1.649604917E0,8.494627953E0,4.022258759E0
1.100401580E0,-1.606509328E0,8.559270859E0,4.115632534E0
1.102385190E0,-1.599326730E0,8.645462036E0,4.194641590E0
1.104399318E0,-1.601720929E0,8.705317497E0,4.240131378E0
1.106413446E0,-1.601720929E0,8.822632790E0,4.304774761E0
1.108397057E0,-1.561019540E0,8.978256226E0,4.319139957E0
1.110411185E0,-1.522712231E0,9.071630478E0,4.266467571E0
1.112394796E0,-1.441309452E0,9.255983353E0,4.048594952E0
1.114408924E0,-1.328781962E0,9.452308655E0,3.801992416E0
1.116392535E0,-1.266532660E0,9.639056206E0,3.524264812E0
1.118406663E0,-1.163581967E0,9.746794701E0,3.373430252E0
1.120390273E0,-1.098938584E0,9.971850395E0,3.074155092E0
1.122404401E0,-1.015141487E0,1.020648193E1,2.719813108E0
1.124388012E0,-9.528923035E-1,1.031422138E1,2.513911724E0
1.126402140E0,-8.116343617E-1,1.051054573E1,2.047042370E0
1.128385751E0,-6.033388376E-1,1.069489861E1,1.520318031E0
1.130399879E0,-4.812345505E-1,1.076433086E1,1.235408068E0
1.132383489E0,-1.819593310E-1,1.083855152E1,6.727706790E-1
1.134397618E0,1.412578970E-1,1.084573364E1,1.005564705E-1
1.136381228E0,3.088520169E-1,1.083855152E1,-1.628057212E-1
1.138395356E0,6.153098345E-1,1.076911926E1,-7.038952708E-1
1.140378967E0,8.619126081E-1,1.064222622E1,-1.233013868E0
1.142393095E0,9.576807022E-1,1.057758331E1,-1.455674648E0
1.144376706E0,1.086967587E0,1.043632507E1,-1.831564307E0
1.146390834E0,1.173158884E0,1.027830791E1,-2.047042370E0
1.148374444E0,1.211466074E0,1.018493366E1,-2.073378563E0
1.150388573E0,1.252167463E0,1.001015759E1,-1.975216389E0
1.152372183E0,1.247379065E0,9.797073364E0,-1.704671621E0
1.154386311E0,1.086967587E0,9.459490776E0,-1.393425345E0
1.156369922E0,9.696516991E-1,9.454702377E0,-1.137245774E0
1.158384050E0,8.714894056E-1,9.229647636E0,-5.291185975E-1
1.160367661E0,5.937620401E-1,9.033323288E0,6.703764945E-2
1.162381789E0,4.309563041E-1,8.985439301E0,3.543418646E-1
1.164365399E0,1.508347094E-1,8.868123055E0,8.499416113E-1
1.166379527E0,-4.548983276E-2,8.784325600E0,1.254561663E0
1.168363138E0,-9.337386489E-2,8.746018410E0,1.419761658E0
1.170377266E0,-1.651999205E-1,8.695740700E0,1.620874524E0
1.172360877E0,-2.154781520E-1,8.602366447E0,1.771709204E0
1.174375005E0,-2.489969730E-1,8.547300339E0,1.841141105E0
1.176358616E0,-3.303998411E-1,8.446743965E0,1.965639591E0
1.178372744E0,-4.118026793E-1,8.327033043E0,2.173935175E0
1.180356354E0,-4.572925270E-1,8.252813339E0,2.300827742E0
1.182370482E0,-5.410895944E-1,8.128314972E0,2.461239338E0
1.184354093E0,-4.884171486E-1,7.989450932E0,2.545036316E0
1.186368221E0,-4.189853072E-1,7.888894558E0,2.559401512E0
1.188351832E0,-2.609679997E-1,7.867346764E0,2.604891539E0
1.190365960E0,-7.900865376E-2,7.876923561E0,2.609679937E0
1.192349570E0,6.464344263E-2,7.955932140E0,2.537853718E0
1.194363699E0,1.292868853E-1,8.042123795E0,2.485181332E0
1.196347309E0,2.729389966E-1,8.226476669E0,2.401384354E0
1.198361437E0,3.950432837E-1,8.396465302E0,2.358288765E0
1.200345048E0,4.357447028E-1,8.487444878E0,2.348711967E0
1.202359176E0,5.003881454E-1,8.710105896E0,2.346317768E0
1.204342787E0,5.770025849E-1,8.904036522E0,2.367865562E0
1.206356915E0,6.248866320E-1,9.011775017E0,2.379836559E0
1.208371043E0,6.775590777E-1,9.205705643E0,2.372653961E0
1.210354654E0,7.493851185E-1,9.366117477E0,2.298433542E0
1.212368782E0,7.924807668E-1,9.442731857E0,2.250549555E0
1.214352392E0,8.882488012E-1,9.591172218E0,2.138022184E0
1.216366520E0,9.433154464E-1,9.758766174E0,1.982398987E0
1.218350131E0,9.313444495E-1,9.830592155E0,1.893813491E0
1.220364259E0,8.643068075E-1,9.976638794E0,1.711854219E0
1.222347870E0,7.469909191E-1,1.009395409E1,1.508347034E0
1.224361998E0,6.679822803E-1,1.022084713E1,1.292868972E0
1.226345609E0,5.147533417E-1,1.028788471E1,1.189918280E0
1.228359737E0,3.711012602E-1,1.037886429E1,1.015141487E0
1.230343347E0,2.681505978E-1,1.043632507E1,9.074024558E-1
1.232357475E0,2.322375625E-1,1.044829655E1,8.786720037E-1
1.234341086E0,1.771709323E-1,1.043153667E1,8.667010069E-1
1.236355214E0,1.173158810E-1,1.037407589E1,8.643068075E-1
1.238338825E0,1.077390760E-1,1.033337498E1,8.667010069E-1
1.240352953E0,7.900865376E-2,1.022802925E1,9.193734527E-1
1.242336563E0,4.309562966E-2,1.014183807E1,1.007958889E0
1.244350692E0,4.788403213E-2,1.009156036E1,1.079784989E0
1.246334302E0,6.224924326E-2,1.001255131E1,1.266532660E0
1.248348430E0,1.675941236E-2,9.962273598E0,1.486799240E0
1.250332041E0,-2.873042040E-2,9.950302124E0,1.594538331E0
1.252346169E0,-1.460463107E-1,9.945513725E0,1.786074519E0
1.254329780E0,-2.609679997E-1,9.974244118E0,1.968033791E0
1.256343908E0,-3.088520169E-1,9.993397713E0,2.035071373E0
1.258327518E0,-4.165911078E-1,1.005804157E1,2.114080191E0
1.260341647E0,-4.788403511E-1,1.012507915E1,2.128445387E0
1.262325257E0,-4.884171486E-1,1.018972206E1,2.063801765E0
1.264339385E0,-5.051765442E-1,1.022802925E1,2.023100376E0
1.266322996E0,-5.051765442E-1,1.029267311E1,1.934514999E0
1.268337124E0,-4.932055473E-1,1.040998936E1,1.872265697E0
1.270320735E0,-4.668693244E-1,1.044829655E1,1.874659896E0
1.272334863E0,-4.381389022E-1,1.052730465E1,1.951274395E0
1.274318473E0,-3.878606856E-1,1.060152531E1,2.102109194E0
1.276332601E0,-3.495534360E-1,1.062307262E1,2.221819162E0
1.278316212E0,-3.303998411E-1,1.066137981E1,2.511517525E0
1.280330340E0,-3.471592367E-1,1.067335129E1,2.861071110E0
1.282313951E0,-3.471592367E-1,1.065659142E1,3.031059265E0
1.284328079E0,-3.687070608E-1,1.058476543E1,3.327940464E0
1.286311690E0,-3.375824392E-1,1.049139214E1,3.557783842E0
1.288325818E0,-3.016694188E-1,1.043153667E1,3.655946016E0
1.290309428E0,-1.843535304E-1,1.025436592E1,3.773261786E0
1.292323556E0,-4.070143029E-2,1.006761837E1,3.797203779E0
1.294307167E0,2.394201607E-2,9.888052940E0,3.794809580E0
1.296321295E0,1.244984865E-1,9.785101891E0,3.766079187E0
1.298304906E0,1.484405100E-1,9.583989143E0,3.739742994E0
1.300319034E0,1.388636976E-1,9.409213066E0,3.732560396E0
1.302302644E0,1.388636976E-1,9.351752281E0,3.708618402E0
1.304316773E0,7.422025502E-2,9.205705643E0,3.742137194E0
1.306300383E0,7.182605099E-3,9.090784073E0,3.847482204E0
1.308314511E0,7.182605099E-3,9.026140213E0,3.892971992E0
1.310328640E0,-1.675941236E-2,8.930372238E0,3.991134167E0
1.312312250E0,2.394201700E-3,8.863334656E0,4.072536945E0
1.314326378E0,4.788403399E-3,8.844181061E0,4.101267338E0
1.316309989E0,1.197100803E-2,8.834604263E0,4.144362926E0
1.318324117E0,1.436521020E-2,8.894459724E0,4.158728123E0
1.320307728E0,4.788403399E-3,8.932766914E0,4.161122322E0
1.322321856E0,-8.858546615E-2,9.057265282E0,4.163516521E0
1.324305466E0,-2.130839527E-1,9.212887764E0,4.158728123E0
1.326319594E0,-2.777273953E-1,9.301473618E0,4.170699596E0
1.328303205E0,-4.046200812E-1,9.512163162E0,4.223371983E0
1.330317333E0,-5.027823448E-1,9.737217903E0,4.307168961E0
1.332300944E0,-5.482721925E-1,9.955090523E0,4.388571739E0
1.334315072E0,-6.344634295E-1,1.005085850E1,4.414907932E0
1.336298682E0,-6.775590777E-1,1.026394272E1,4.431667328E0
1.338312811E0,-6.823474765E-1,1.043632507E1,4.390965939E0
1.340296421E0,-6.847416759E-1,1.050815105E1,4.340687752E0
1.342310549E0,-7.062895298E-1,1.063025570E1,4.194641590E0
1.344294160E0,-7.565677166E-1,1.073560047E1,4.007893562E0
1.346308288E0,-7.805097699E-1,1.077630138E1,3.926490784E0
1.348291899E0,-8.379706144E-1,1.083855152E1,3.758896589E0
1.350306027E0,-9.121908545E-1,1.088164711E1,3.620033026E0
1.352289637E0,-9.552865028E-1,1.089361763E1,3.567360640E0
1.354303766E0,-1.019929886E0,1.088643551E1,3.485957623E0
1.356287376E0,-1.065419793E0,1.085770512E1,3.483563423E0
1.358301504E0,-1.070208192E0,1.083376312E1,3.495534420E0
1.360285115E0,-1.058237195E0,1.071884060E1,3.526659012E0
1.362299243E0,-1.048660398E0,1.057758331E1,3.586514235E0
1.364282854E0,-1.031900883E0,1.050815105E1,3.598485231E0
1.366296982E0,-9.864110947E-1,1.035492229E1,3.622427225E0
1.368280592E0,-8.403648138E-1,1.019690514E1,3.596091032E0
1.370294721E0,-7.493851185E-1,1.008198357E1,3.493140221E0
1.372278331E0,-6.847416759E-1,1.001733971E1,3.411737442E0
1.374292459E0,-5.506663918E-1,9.926360130E0,3.265691042E0
1.376276070E0,-4.165911078E-1,9.897629738E0,3.102885485E0
1.378290198E0,-3.663128614E-1,9.900024414E0,3.016694069E0
1.380273809E0,-2.992752194E-1,9.909601212E0,2.841917515E0
1.382287937E0,-1.963245422E-1,9.986215591E0,2.676717520E0
1.384271547E0,-1.532289088E-1,1.002931118E1,2.602497339E0
1.386285675E0,-5.506663769E-2,1.016099167E1,2.461239338E0
1.388269286E0,4.788403213E-2,1.027591324E1,2.317587137E0
1.390283414E0,1.101332754E-1,1.032858658E1,2.238578558E0
1.392267026E0,2.418143749E-1,1.046505547E1,2.078166962E0
1.394281153E0,3.711012602E-1,1.057997704E1,1.910573006E0
1.396264765E0,4.333505034E-1,1.063025570E1,1.812410712E0
1.398278892E0,5.195417404E-1,1.073081207E1,1.623268723E0
1.400262503E0,5.674257874E-1,1.081460953E1,1.450886250E0
1.402276630E0,5.793967843E-1,1.090558910E1,1.391031146E0
1.404260242E0,5.817909837E-1,1.093671322E1,1.302445769E0
1.406274369E0,5.746083856E-1,1.100375080E1,1.271321058E0
1.408257981E0,6.033388376E-1,1.103966427E1,1.297657371E0
1.410272108E0,5.985504389E-1,1.105881786E1,1.323993564E0
1.412255719E0,6.105214357E-1,1.107797146E1,1.400607944E0
1.414269847E0,5.770025849E-1,1.108275986E1,1.510741234E0
1.416253458E0,5.674257874E-1,1.106599998E1,1.572990537E0
1.418267585E0,5.530605912E-1,1.101093388E1,1.721431017E0
1.420251197E0,5.075707436E-1,1.094868469E1,1.857900500E0
1.422265324E0,4.860229492E-1,1.090798283E1,1.898601890E0
1.424248936E0,4.788403511E-1,1.085531044E1,1.948880196E0
1.426263063E0,4.477157295E-1,1.076672459E1,2.003946781E0
1.428246674E0,4.237737060E-1,1.073799419E1,2.037465572E0
1.430260802E0,3.471592367E-1,1.068532181E1,2.123656988E0
1.432244413E0,2.585737705E-1,1.061828423E1,2.252943754E0
1.434258540E0,2.106897533E-1,1.058955383E1,2.319981337E0
1.436242152E0,1.149216816E-1,1.052012253E1,2.470816135E0
1.438256279E0,2.873042040E-2,1.046505547E1,2.612074137E0
1.440239891E0,-4.788403399E-3,1.042435455E1,2.741360903E0
1.442254018E0,-5.746084079E-2,1.039801788E1,2.808398485E0
1.444237629E0,-1.221042871E-1,1.035731697E1,2.916137695E0
1.446251756E0,-1.604115069E-1,1.029746151E1,2.997540474E0
1.448235368E0,-1.843535304E-1,1.028309631E1,3.033453465E0
1.450249496E0,-2.442085743E-1,1.028788471E1,3.088520288E0
1.452233107E0,-3.112462163E-1,1.027112484E1,3.131615877E0
1.454247235E0,-3.399766386E-1,1.027112484E1,3.141192675E0
1.456230846E0,-3.711012602E-1,1.027112484E1,3.134010077E0
1.458244974E0,-3.711012602E-1,1.026873112E1,3.119644880E0
1.460228584E0,-3.615244627E-1,1.027351952E1,3.100491285E0
1.462242712E0,-3.758896589E-1,1.029267311E1,3.050212860E0
1.464226323E0,-3.974374831E-1,1.028309631E1,2.964021683E0
1.466240451E0,-4.141969085E-1,1.027112484E1,2.918531895E0
1.468224062E0,-4.884171486E-1,1.024239445E1,2.861071110E0
1.470238190E0,-5.243301988E-1,1.018732834E1,2.858676910E0
1.472221800E0,-5.410895944E-1,1.014662647E1,2.882618904E0
1.474235929E0,-5.722141862E-1,1.005804157E1,2.973598480E0
1.476219539E0,-5.722141862E-1,9.964667320E0,3.122039080E0
1.478233667E0,-5.793967843E-1,9.847352028E0,3.318363667E0
1.480217278E0,-6.177040339E-1,9.789890289E0,3.416525841E0
1.482231406E0,-5.865794420E-1,9.670180321E0,3.612850428E0
1.484215017E0,-5.770025849E-1,9.576807022E0,3.742137194E0
1.486229145E0,-5.865794420E-1,9.516951561E0,3.787626982E0
1.488243272E0,-5.817909837E-1,9.397241592E0,3.878606796E0
1.490226884E0,-5.434837937E-1,9.289502144E0,3.960009575E0
1.492241011E0,-5.243301988E-1,9.239224434E0,3.998316765E0
1.494224622E0,-4.668693244E-1,9.131484985E0,4.070142746E0
1.496238749E0,-4.094084799E-1,9.033323288E0,4.122815132E0
1.498222361E0,-3.854664862E-1,8.987833023E0,4.144362926E0
1.500236488E0,-3.471592367E-1,8.920795441E0,4.170699596E0
1.502220100E0,-3.160346150E-1,8.863334656E0,4.182670593E0
1.504234227E0,-2.968810201E-1,8.841787338E0,4.185064793E0
1.506217838E0,-2.801215947E-1,8.805873871E0,4.209006786E0
1.508231966E0,-2.657563984E-1,8.815450668E0,4.230554581E0
1.510215577E0,-2.489969730E-1,8.822632790E0,4.242525578E0
1.512229705E0,-2.442085743E-1,8.813055992E0,4.240131378E0
1.514213316E0,-2.585737705E-1,8.829815865E0,4.230554581E0
1.516227444E0,-2.849099934E-1,8.853757858E0,4.201824188E0
1.518211055E0,-3.064578176E-1,8.875306129E0,4.199429989E0
1.520225183E0,-3.351882398E-1,8.939949036E0,4.161122322E0
1.522208793E0,-3.734954596E-1,9.030928612E0,4.225766182E0
1.524222922E0,-3.830722570E-1,9.066842079E0,4.194641590E0
1.526206532E0,-3.806780577E-1,9.162610054E0,4.039018154E0
1.528220660E0,-3.447650373E-1,9.253589630E0,3.924096584E0
1.530204271E0,-3.088520169E-1,9.279925346E0,3.885789394E0
1.532218399E0,-3.208230138E-1,9.414001465E0,3.787626982E0
1.534232526E0,-3.758896589E-1,9.423578262E0,3.677493811E0
1.536216138E0,-2.035071403E-1,9.387664795E0,3.672705412E0
1.538230265E0,2.226607651E-1,9.263166428E0,3.598485231E0
1.540213877E0,6.248866320E-1,9.131484985E0,3.380612850E0
1.542228004E0,7.517793179E-1,9.081207275E0,3.253720045E0
1.544211615E0,8.331822157E-1,9.026140213E0,2.973598480E0
1.546225742E0,7.062895298E-1,9.059659004E0,2.786850691E0
1.548209354E0,5.961562395E-1,9.119514465E0,2.726995707E0
1.550223481E0,3.950432837E-1,9.126696587E0,2.748543501E0
1.552207093E0,3.591302633E-1,9.191340446E0,2.810792685E0
1.554221220E0,3.950432837E-1,9.222464561E0,2.801215887E0
1.556204831E0,4.141969085E-1,9.220070839E0,2.786850691E0
1.558218959E0,4.908113480E-1,9.246406555E0,2.736572504E0
1.560202570E0,5.410895944E-1,9.270348549E0,2.671929121E0
1.562216697E0,5.458779931E-1,9.260771751E0,2.647987127E0
1.564200309E0,5.243301988E-1,9.267954826E0,2.631227732E0
1.566214436E0,4.620809257E-1,9.265560150E0,2.628833532E0
1.568198048E0,4.189853072E-1,9.267954826E0,2.628833532E0
1.570212175E0,2.873041928E-1,9.279925346E0,2.662352324E0
1.572195786E0,2.059013397E-1,9.332598686E0,2.710236311E0
1.574209915E0,1.819593310E-1,9.356540680E0,2.741360903E0
1.576193525E0,1.747767180E-1,9.378087997E0,2.806004286E0
1.578207653E0,1.771709323E-1,9.428366661E0,2.851494312E0
1.580221780E0,1.795651317E-1,9.469067574E0,2.896984100E0
1.582205392E0,2.250549644E-1,9.519346237E0,2.930502892E0
1.584219519E0,2.418143749E-1,9.555258751E0,2.940079689E0
1.586203131E0,2.561795712E-1,9.572018623E0,2.940079689E0
1.588217258E0,2.705447972E-1,9.572018623E0,2.935291290E0
1.590200869E0,2.849099934E-1,9.548076630E0,2.899378300E0
1.592214997E0,2.561795712E-1,9.521739960E0,2.844311714E0
1.594198608E0,2.825157940E-1,9.488221169E0,2.829946518E0
1.596212735E0,3.902548850E-1,9.406818390E0,2.813186884E0
1.598196347E0,4.165911078E-1,9.306262016E0,2.774879694E0
1.600210474E0,4.453215301E-1,9.255983353E0,2.731784105E0
1.602194086E0,5.027823448E-1,9.179368973E0,2.619256735E0
1.604208213E0,5.817909837E-1,9.062053680E0,2.530671120E0
1.606191824E0,6.224924326E-1,9.021351814E0,2.477998734E0
1.608205952E0,6.847416759E-1,8.939949036E0,2.382230759E0
1.610189563E0,7.062895298E-1,8.832210541E0,2.288856745E0
1.612203690E0,7.062895298E-1,8.781931877E0,2.257732153E0
1.614187302E0,6.727706790E-1,8.683769226E0,2.217030764E0
1.616201429E0,6.081272364E-1,8.573636055E0,2.219424963E0
1.618185041E0,5.770025849E-1,8.465897560E0,2.284068346E0
1.620199168E0,4.860229492E-1,8.432378769E0,2.324769735E0
1.622182779E0,4.213795066E-1,8.362946510E0,2.444479942E0
1.624196907E0,3.854664862E-1,8.274360657E0,2.600103140E0
1.626180518E0,3.854664862E-1,8.231265068E0,2.700659513E0
1.628194645E0,3.950432837E-1,8.106766701E0,2.899378300E0
1.630178257E0,4.285621047E-1,7.982268333E0,3.110068083E0
1.632192384E0,4.381389022E-1,7.905653954E0,3.205836058E0
1.634175996E0,4.668693244E-1,7.771578789E0,3.375824451E0
1.636190124E0,4.716577232E-1,7.666234016E0,3.483563423E0
1.638173734E0,4.908113480E-1,7.623138428E0,3.524264812E0
1.640187862E0,5.195417404E-1,7.558494568E0,3.579331636E0
1.642171473E0,6.057330370E-1,7.522581577E0,3.632004023E0
1.644185601E0,6.536170840E-1,7.484274387E0,3.639186621E0
1.646169212E0,7.230489254E-1,7.448361397E0,3.591302633E0
1.648183340E0,7.757213712E-1,7.453149796E0,3.550601006E0
1.650197467E0,7.996633649E-1,7.455543995E0,3.536235809E0
1.652181079E0,8.667010069E-1,7.457938194E0,3.505111217E0
1.654195206E0,8.978256583E-1,7.491456985E0,3.450044632E0
1.656178817E0,9.600749016E-1,7.527369976E0,3.397372246E0
1.658192945E0,9.888052940E-1,7.544129372E0,3.368641853E0
1.660176556E0,1.007958889E0,7.592013359E0,3.311181068E0
1.662190683E0,1.058237195E0,7.663839817E0,3.251325846E0
1.664174295E0,1.065419793E0,7.714118004E0,3.236960649E0
1.666188422E0,1.053448796E0,7.809885979E0,3.191470861E0
1.668172034E0,1.051054597E0,7.903259754E0,3.165134668E0
1.670186161E0,1.027112484E0,7.948749542E0,3.160346270E0
1.672169772E0,9.983820915E-1,8.030152321E0,3.193865061E0
1.674183899E0,1.007958889E0,8.099584579E0,3.205836058E0
1.676167511E0,1.015141487E0,8.121131897E0,3.210624456E0
1.678181638E0,1.048660398E0,8.209717751E0,3.217807055E0
1.680165250E0,1.106121182E0,8.255207062E0,3.210624456E0
1.682179377E0,1.125274777E0,8.279149055E0,3.198653460E0
1.684162989E0,1.175553083E0,8.295908928E0,3.179499865E0
1.686177116E0,1.218648672E0,8.305485725E0,3.124433279E0
1.688160727E0,1.240196466E0,8.293514252E0,3.098097086E0
1.690174854E0,1.312022567E0,8.283937454E0,3.023876667E0
1.692158466E0,1.395819545E0,8.219294548E0,2.947262287E0
1.694172593E0,1.455674648E0,8.154650688E0,2.844311714E0
1.696156205E0,1.477222443E0,8.128314972E0,2.786850691E0
1.698170333E0,1.489193439E0,8.082824707E0,2.633621931E0
1.700153943E0,1.462857246E0,8.042123795E0,2.449268341E0
1.702168072E0,1.446097851E0,8.051700592E0,2.351106167E0
1.704151682E0,1.362300754E0,8.085219383E0,2.185906172E0
1.706165810E0,1.225831270E0,8.109161377E0,2.087743998E0
1.708149421E0,1.161187768E0,8.161833763E0,2.061407566E0
1.710163549E0,1.060631394E0,8.293514252E0,2.056619167E0
1.712147160E0,9.911994934E-1,8.408436775E0,2.073378563E0
1.714161288E0,9.528923035E-1,8.463502884E0,2.094926596E0
1.716144898E0,9.217676520E-1,8.595184326E0,2.169146776E0
1.718159027E0,9.026140571E-1,8.722076416E0,2.260126352E0
1.720173154E0,8.786720037E-1,8.779537201E0,2.293645144E0
1.722156765E0,8.164227605E-1,8.870517731E0,2.389413357E0
1.724170892E0,7.613561153E-1,8.985439301E0,2.463633537E0
1.726154504E0,7.134721279E-1,9.069235802E0,2.542642117E0
1.728168631E0,5.841852427E-1,9.107542992E0,2.585737944E0
1.730152243E0,4.740519226E-1,9.167398453E0,2.664746523E0
1.732166370E0,4.213795066E-1,9.203310966E0,2.755726099E0
1.734149982E0,4.141969085E-1,9.210494041E0,2.810792685E0
1.736164109E0,4.094084799E-1,9.210494041E0,2.920926094E0
1.738147720E0,4.261679053E-1,9.188945770E0,3.023876667E0
1.740161847E0,4.381389022E-1,9.165003777E0,3.076549292E0
1.742145459E0,4.932055473E-1,9.112331390E0,3.179499865E0
1.744159586E0,5.243301988E-1,9.030928612E0,3.284844637E0
1.746143198E0,5.626373887E-1,8.987833023E0,3.323152065E0
1.748157325E0,6.009446383E-1,8.901641846E0,3.344699860E0
1.750140936E0,6.129156351E-1,8.829815865E0,3.320757866E0
1.752155064E0,6.177040339E-1,8.808267593E0,3.313575268E0
1.754138675E0,5.554547906E-1,8.738836288E0,3.284844637E0
1.756152803E0,4.477157295E-1,8.702922821E0,3.253720045E0
1.758136414E0,3.926490843E-1,8.688557625E0,3.248931646E0
1.760150542E0,3.232172430E-1,8.678980827E0,3.263296843E0
1.762134153E0,2.801215947E-1,8.690952301E0,3.332728863E0
1.764148281E0,2.298433632E-1,8.755595207E0,3.392583847E0
1.766131891E0,2.059013397E-1,8.798690796E0,3.440467834E0
1.768146020E0,1.747767180E-1,8.901641846E0,3.497928619E0
1.770129630E0,1.340752989E-1,9.016563416E0,3.526659012E0
1.772143758E0,1.125274822E-1,9.076418877E0,3.524264812E0
1.774127369E0,9.576806426E-2,9.160215378E0,3.485957623E0
1.776141497E0,1.101332754E-1,9.258378029E0,3.387795448E0
1.778125108E0,1.292868853E-1,9.299078941E0,3.318363667E0
1.780139236E0,1.580173075E-1,9.378087997E0,3.153163671E0
1.782122846E0,1.604115069E-1,9.459490776E0,2.956839085E0
1.784136974E0,1.340752989E-1,9.483432770E0,2.870647907E0
1.786120585E0,9.337386489E-2,9.526528358E0,2.741360903E0
1.788134713E0,4.548983276E-2,9.586383820E0,2.674323320E0
1.790118324E0,2.873042040E-2,9.605537415E0,2.655169725E0
1.792132452E0,6.703764945E-2,9.648633003E0,2.626439333E0
1.794116063E0,1.125274822E-1,9.679757118E0,2.638410330E0
1.796130191E0,1.436520964E-1,9.679757118E0,2.631227732E0
1.798113801E0,1.963245422E-1,9.677363396E0,2.607285738E0
1.800127929E0,2.657563984E-1,9.634267807E0,2.590526342E0
1.802111540E0,3.232172430E-1,9.583989143E0,2.590526342E0
1.804125668E0,3.375824392E-1,9.555258751E0,2.592920542E0
1.806109279E0,3.711012602E-1,9.454702377E0,2.614468336E0
1.808123407E0,3.663128614E-1,9.404424667E0,2.647987127E0
1.810107017E0,3.591302633E-1,9.373299599E0,2.669534922E0
1.812121146E0,3.375824392E-1,9.306262016E0,2.765302896E0
1.814104756E0,3.064578176E-1,9.251194954E0,2.873042107E0
1.816118884E0,2.944868207E-1,9.224859238E0,2.928108692E0
1.818102495E0,2.825157940E-1,9.169792175E0,3.074155092E0
1.820116623E0,2.442085743E-1,9.129091263E0,3.215412855E0
1.822100234E0,2.298433632E-1,9.117119789E0,3.284844637E0
1.824114362E0,1.651999205E-1,9.112331390E0,3.385401249E0
1.826097972E0,8.379705995E-2,9.117119789E0,3.497928619E0
1.828112101E0,4.788403213E-2,9.148244858E0,3.526659012E0
1.830095711E0,-1.436521020E-2,9.179368973E0,3.581725836E0
1.832109839E0,-6.224924326E-2,9.229647636E0,3.576937437E0
1.834093450E0,-8.379705995E-2,9.299078941E0,3.569754839E0
1.836107578E0,-8.619125932E-2,9.318233490E0,3.543418407E0
1.838091189E0,-7.661445439E-2,9.354146004E0,3.502717018E0
1.840105317E0,-9.337386489E-2,9.387664795E0,3.469198227E0
1.842119445E0,-1.125274822E-1,9.402029991E0,3.454833031E0
1.844103055E0,-1.364694983E-1,9.437943459E0,3.459621429E0
1.846117184E0,-1.508347094E-1,9.442731857E0,3.464409828E0
1.848100794E0,-1.436520964E-1,9.457097054E0,3.462015629E0
1.850114922E0,-1.484405100E-1,9.433155060E0,3.466804028E0
1.852098533E0,-1.460463107E-1,9.445125580E0,3.454833031E0
1.854112661E0,-1.364694983E-1,9.425971985E0,3.462015629E0
1.856096272E0,-9.576806426E-2,9.378087997E0,3.478775024E0
1.858110400E0,-3.112462163E-2,9.334992409E0,3.514688015E0
1.860094010E0,-1.197100803E-2,9.306262016E0,3.541024208E0
1.862108139E0,4.070143029E-2,9.244012833E0,3.596091032E0
1.864091749E0,7.422025502E-2,9.174580574E0,3.672705412E0
1.866105877E0,1.005564705E-1,9.141061783E0,3.713406801E0
1.868089488E0,1.699883193E-1,9.054870605E0,3.794809580E0
1.870103616E0,2.082955539E-1,8.963891029E0,3.847482204E0
1.872087227E0,2.657563984E-1,8.889671326E0,3.921702385E0
1.874101355E0,2.777273953E-1,8.834604263E0,3.948038578E0
1.876084965E0,2.825157940E-1,8.791508675E0,4.043806553E0
1.878099094E0,4.118026793E-1,8.693346024E0,4.096478939E0
1.880082704E0,3.926490843E-1,8.669404030E0,4.096478939E0
1.882096832E0,3.711012602E-1,8.585607529E0,4.108449936E0
1.884080443E0,4.070142806E-1,8.511386871E0,4.158728123E0
1.886094571E0,4.333505034E-1,8.492233276E0,4.204218388E0
1.888078182E0,4.692635238E-1,8.432378769E0,4.273650169E0
1.890092310E0,5.051765442E-1,8.362946510E0,4.326322556E0
1.892075920E0,5.243301988E-1,8.346187592E0,4.357447147E0
1.894090048E0,5.746083856E-1,8.293514252E0,4.402936935E0
1.896073659E0,5.937620401E-1,8.243236542E0,4.448426723E0
1.898087787E0,6.009446383E-1,8.224082947E0,4.467580318E0
1.900071398E0,6.081272364E-1,8.180987358E0,4.489128113E0
1.902085526E0,5.722141862E-1,8.185775757E0,4.479551315E0
1.904069137E0,5.506663918E-1,8.204929352E0,4.474762917E0
1.906083265E0,4.788403511E-1,8.214506149E0,4.450820923E0
1.908066875E0,4.333505034E-1,8.288725853E0,4.426878929E0
1.910081003E0,4.022258818E-1,8.382100105E0,4.412513733E0
1.912064614E0,3.950432837E-1,8.432378769E0,4.407725334E0
1.914078742E0,3.758896589E-1,8.532935143E0,4.410119534E0
1.916062353E0,3.734954596E-1,8.655038834E0,4.429273129E0
1.918076481E0,3.830722570E-1,8.700529099E0,4.434061527E0
1.920060091E0,3.806780577E-1,8.774748802E0,4.431667328E0
1.922074220E0,4.070142806E-1,8.839392662E0,4.402936935E0
1.924057830E0,4.189853072E-1,8.880094528E0,4.386177540E0
1.926071958E0,4.357447028E-1,8.913613319E0,4.319139957E0
1.928055569E0,4.405331016E-1,8.920795441E0,4.199429989E0
1.930069697E0,4.357447028E-1,8.930372238E0,4.132391930E0
1.932053308E0,3.998316824E-1,8.961497307E0,3.974374771E0
1.934067436E0,3.639186621E-1,9.002198219E0,3.821146011E0
1.936051046E0,3.447650373E-1,9.026140213E0,3.763684988E0
1.938065175E0,2.944868207E-1,9.102754593E0,3.665522814E0
1.940048785E0,2.226607651E-1,9.217676163E0,3.622427225E0
1.942062913E0,2.035071403E-1,9.361329079E0,3.663128614E0
1.944046524E0,1.460463107E-1,9.437943459E0,3.694253206E0
1.946060652E0,9.576806426E-2,9.600749016E0,3.758896589E0
1.948044263E0,5.985504389E-2,9.765948296E0,3.799597979E0
1.950058391E0,4.548983276E-2,9.830592155E0,3.828328609E0
1.952042001E0,-2.394201700E-3,9.967061996E0,3.878606796E0
1.954056129E0,-5.746084079E-2,1.011071396E1,3.900154591E0
1.956039740E0,-8.858546615E-2,1.016817474E1,3.902548790E0
1.958053868E0,-1.580173075E-1,1.028309631E1,3.936067581E0
1.960037479E0,-2.442085743E-1,1.042435455E1,3.967192173E0
1.962051607E0,-2.777273953E-1,1.046266174E1,3.983951569E0
1.964035218E0,-3.280056417E-1,1.056561184E1,4.048594952E0
1.966049346E0,-3.495534360E-1,1.067095661E1,4.115632534E0
1.968032956E0,-3.447650373E-1,1.071644688E1,4.153939724E0
1.970047084E0,-3.256114423E-1,1.079306126E1,4.254496574E0
1.972030695E0,-2.873041928E-1,1.083376312E1,4.347870350E0
1.974044823E0,-2.705447972E-1,1.084094524E1,4.390965939E0
1.976028434E0,-2.418143749E-1,1.082418633E1,4.441244125E0
1.978042562E0,-2.370259613E-1,1.079066753E1,4.460397720E0
1.980026172E0,-2.226607651E-1,1.073560047E1,4.448426723E0
1.982040301E0,-2.154781520E-1,1.070447540E1,4.431667328E0
1.984023911E0,-2.130839527E-1,1.064940929E1,4.381389141E0
1.986038039E0,-2.130839527E-1,1.057279491E1,4.352658749E0
1.988021650E0,-2.226607651E-1,1.055364132E1,4.345476151E0
1.990035778E0,-1.268926859E-1,1.048420906E1,4.357447147E0
1.992019389E0,-8.140286058E-2,1.040520096E1,4.328716755E0
1.994033517E0,-9.097966552E-2,1.038125896E1,4.309563160E0
1.996017127E0,-8.858546615E-2,1.032379818E1,4.309563160E0
1.998031256E0,-6.943184882E-2,1.026154804E1,4.333505154E0
2.000014866E0,-7.661445439E-2,1.022324085E1,4.347870350E0
2.002028994E0,-7.900865376E-2,1.015141487E1,4.355052948E0
2.004012605E0,-6.703764945E-2,1.007240677E1,4.355052948E0
2.006026733E0,-8.379705995E-2,1.002452278E1,4.338293552E0
2.008010345E0,-9.337386489E-2,9.964667320E0,4.321534157E0
2.010024472E0,-1.364694983E-1,9.935936928E0,4.326322556E0
2.012008083E0,-1.532289088E-1,9.909601212E0,4.335899353E0
2.014022210E0,-1.723825186E-1,9.897629738E0,4.364629745E0
2.016005822E0,-1.939303428E-1,9.880870819E0,4.395754337E0
2.018019949E0,-2.059013397E-1,9.890447617E0,4.469974518E0
2.020003561E0,-2.154781520E-1,9.883264542E0,4.508281708E0
2.022017688E0,-2.178723514E-1,9.868899345E0,4.596867085E0
2.024001300E0,-2.106897533E-1,9.888052940E0,4.671087742E0
2.026015427E0,-2.130839527E-1,9.885659218E0,4.704606533E0
2.027999038E0,-2.226607651E-1,9.888052940E0,4.769249916E0
2.030013165E0,-2.322375625E-1,9.864110947E0,4.833893299E0
2.031996777E0,-2.274491638E-1,9.856928825E0,4.872200489E0
2.034010904E0,-2.250549644E-1,9.830592155E0,4.958391666E0
2.035994516E0,-2.226607651E-1,9.804255486E0,5.051765442E0
2.038008643E0,-1.987187415E-1,9.789890289E0,5.109226227E0
2.039992254E0,-1.723825186E-1,9.768342972E0,5.214571476E0
2.042006382E0,-1.221042871E-1,9.749189377E0,5.267243862E0
2.043989993E0,-1.005564705E-1,9.727641106E0,5.303156853E0
2.046004120E0,-5.746084079E-2,9.703699112E0,5.386953831E0
2.047987732E0,7.182605099E-3,9.710882187E0,5.468356609E0
2.050001859E0,5.506663769E-2,9.710882187E0,5.554547787E0
2.051985471E0,1.604115069E-1,9.706093788E0,5.597643375E0
2.053999598E0,2.585737705E-1,9.698910713E0,5.659893036E0
2.055983209E0,3.830722570E-1,9.720458984E0,5.679046631E0
2.057997337E0,4.501099288E-1,9.734824181E0,5.631162167E0
2.059980948E0,5.698199868E-1,9.773131371E0,5.468356609E0
2.061995075E0,7.015010715E-1,9.804255486E0,5.224148273E0
2.063978687E0,7.781155705E-1,9.830592155E0,5.106832027E0
2.065992814E0,9.528923035E-1,9.888052940E0,4.843470097E0
2.067976426E0,1.127668977E0,9.938331604E0,4.517858505E0
2.069990554E0,1.213860273E0,9.964667320E0,4.340687752E0
2.071974164E0,1.367089152E0,9.983820915E0,3.998316765E0
2.073988293E0,1.474828243E0,9.988609314E0,3.715801001E0
2.075971903E0,1.498770237E0,9.998186111E0,3.605667830E0
2.077986031E0,1.496376038E0,1.001494598E1,3.459621429E0
2.079969642E0,1.505952835E0,1.003649330E1,3.354276657E0
2.081983770E0,1.493981838E0,1.005325317E1,3.313575268E0
2.083967381E0,1.426944256E0,1.004846478E1,3.256114244E0
2.085981509E0,1.350329757E0,1.006043530E1,3.215412855E0
2.087965119E0,1.297657371E0,1.008437729E1,3.184288263E0
2.089979247E0,1.211466074E0,1.011071396E1,3.169923067E0
2.091962858E0,1.086967587E0,1.016578007E1,3.169923067E0
2.093976986E0,9.409212470E-1,1.021605873E1,3.172317266E0
2.095960597E0,8.786720037E-1,1.023760605E1,3.181894064E0
2.097974725E0,7.350199223E-1,1.032140350E1,3.236960649E0
2.099958335E0,5.674257874E-1,1.040280628E1,3.272873640E0
2.101972464E0,4.788403511E-1,1.043871975E1,3.294421434E0
2.103956074E0,3.064578176E-1,1.051054573E1,3.359065056E0
2.105970202E0,1.436520964E-1,1.057518864E1,3.426102638E0
2.107953813E0,5.506663769E-2,1.061110210E1,3.457227230E0
2.109967941E0,-1.604115069E-1,1.070926380E1,3.545812607E0
2.111951552E0,-3.830722570E-1,1.079784966E1,3.655946016E0
2.113965680E0,-4.932055473E-1,1.083855152E1,3.725377798E0
2.115949290E0,-6.919242740E-1,1.091755962E1,3.873818398E0
2.117963419E0,-8.212111592E-1,1.096783829E1,4.034229755E0
2.119947029E0,-8.643068075E-1,1.097741508E1,4.106055737E0
2.121961157E0,-9.217676520E-1,1.098699188E1,4.204218388E0
2.123944768E0,-9.959878922E-1,1.100135708E1,4.256890774E0
2.125958896E0,-1.051054597E0,1.097741508E1,4.273650169E0
2.127942507E0,-1.079784989E0,1.094868469E1,4.256890774E0
2.129956635E0,-1.115697980E0,1.090080070E1,4.197035789E0
2.131940245E0,-1.113303781E0,1.080742645E1,4.062960148E0
2.133954374E0,-1.096544385E0,1.076911926E1,3.983951569E0
2.135937984E0,-1.058237195E0,1.069489861E1,3.797203779E0
2.137952112E0,-1.039083481E0,1.059913063E1,3.629609823E0
2.139935723E0,-1.015141487E0,1.056800652E1,3.541024208E0
2.141949851E0,-9.720458984E-1,1.046745014E1,3.399766445E0
2.143933462E0,-9.648633003E-1,1.036928749E1,3.256114244E0
2.145947590E0,-9.552865028E-1,1.032379818E1,3.203441858E0
2.147931200E0,-9.361328483E-1,1.024718285E1,3.124433279E0
2.149945328E0,-9.409212470E-1,1.018972206E1,3.059789658E0
2.151928939E0,-9.504981041E-1,1.018253994E1,3.038241863E0
2.153943067E0,-9.864110947E-1,1.016578007E1,3.055001259E0
2.155926678E0,-9.433154464E-1,1.011550236E1,3.095702887E0
2.157940806E0,-9.361328483E-1,1.010831928E1,3.114856482E0
2.159924417E0,-9.504981041E-1,1.011550236E1,3.169923067E0
2.161938545E0,-9.696516991E-1,1.008677197E1,3.284844637E0
2.163922155E0,-9.959878922E-1,1.003409958E1,3.414131641E0
2.165936283E0,-1.029506683E0,1.001973438E1,3.497928619E0
2.167919894E0,-1.096544385E0,9.983820915E0,3.670311213E0
2.169934022E0,-1.134851575E0,9.919178009E0,3.801992416E0
2.171917633E0,-1.139639974E0,9.878476143E0,3.866635799E0
2.173931761E0,-1.137245774E0,9.799467087E0,3.943250179E0
2.175915371E0,-1.115697980E0,9.672574997E0,3.964797974E0
2.177929500E0,-1.084573388E0,9.622296333E0,3.971980572E0
2.179913110E0,-1.012747288E0,9.478644371E0,3.967192173E0
2.181927238E0,-9.888052940E-1,9.332598686E0,3.936067581E0
2.183910849E0,-9.816226959E-1,9.260771751E0,3.933673382E0
2.185924977E0,-9.720458984E-1,9.112331390E0,3.936067581E0
2.187908588E0,-9.600749016E-1,8.947132111E0,3.924096584E0
2.189922716E0,-9.552865028E-1,8.870517731E0,3.900154591E0
2.191906326E0,-9.409212470E-1,8.724471092E0,3.885789394E0
2.193920455E0,-9.241618514E-1,8.628703117E0,3.933673382E0
2.195904065E0,-9.121908545E-1,8.537723541E0,3.960009575E0
2.197918193E0,-8.858546019E-1,8.504204750E0,4.007893562E0
2.199901804E0,-8.403648138E-1,8.444349289E0,4.043806553E0
2.201915932E0,-8.212111592E-1,8.408436775E0,4.098873138E0
2.203899543E0,-8.882488012E-1,8.418013573E0,4.098873138E0
2.205913671E0,-8.403648138E-1,8.396465302E0,4.192247391E0
2.207897281E0,-6.344634295E-1,8.360552788E0,4.266467571E0
2.209911409E0,-5.793967843E-1,8.350975990E0,4.237737179E0
2.211895020E0,-5.698199868E-1,8.362946510E0,4.139574528E0
2.213909148E0,-5.937620401E-1,8.398859978E0,4.091690540E0
2.215892759E0,-6.081272364E-1,8.418013573E0,4.084507942E0
2.217906887E0,-6.512228847E-1,8.494627953E0,4.113238335E0
2.219890498E0,-6.631938815E-1,8.580819130E0,4.163516521E0
2.221904626E0,-6.655880809E-1,8.640673637E0,4.170699596E0
2.223888236E0,-6.560112834E-1,8.736441612E0,4.139574528E0
2.225902364E0,-6.296750307E-1,8.870517731E0,4.055777550E0
2.227885975E0,-6.248866320E-1,8.927978516E0,3.995922565E0
2.229900103E0,-6.153098345E-1,9.035717010E0,3.866635799E0
2.231883714E0,-6.081272364E-1,9.153033257E0,3.670311213E0
2.233897842E0,-5.985504389E-1,9.234436035E0,3.445256233E0
2.235881452E0,-5.458779931E-1,9.272743225E0,3.339911461E0
2.237895581E0,-4.764461517E-1,9.358934402E0,3.090914488E0
2.239879191E0,-3.806780577E-1,9.382876396E0,2.861071110E0
2.241893319E0,-3.088520169E-1,9.404424667E0,2.758120298E0
2.243876930E0,-1.843535304E-1,9.445125580E0,2.535459518E0
2.245891058E0,-7.422025502E-2,9.466673851E0,2.324769735E0
2.247874669E0,-7.182605099E-3,9.466673851E0,2.236184359E0
2.249888797E0,9.097966552E-2,9.481039047E0,2.059013367E0
2.251872407E0,1.580173075E-1,9.435548782E0,1.898601890E0
2.253886536E0,1.915361285E-1,9.397241592E0,1.831564307E0
2.255870147E0,2.226607651E-1,9.327810287E0,1.728613615E0
2.257884274E0,2.130839527E-1,9.236829758E0,1.673547029E0
2.259867886E0,2.082955539E-1,9.217676163E0,1.666364431E0
2.261882013E0,1.915361285E-1,9.165003777E0,1.680729628E0
2.263865625E0,2.011129409E-1,9.097966194E0,1.714248419E0
2.265879752E0,2.059013397E-1,9.088389397E0,1.766920805E0
2.267893880E0,1.939303428E-1,9.064447403E0,1.879448295E0
2.269877490E0,1.556231081E-1,9.071630478E0,2.015917778E0
2.271861102E0,9.097966552E-2,9.083600998E0,2.190694571E0
2.273875229E0,4.070143029E-2,9.093177795E0,2.279279947E0
2.275858841E0,-7.422025502E-2,9.136273384E0,2.458845139E0
2.277872968E0,-1.819593310E-1,9.165003777E0,2.602497339E0
2.279856580E0,-2.322375625E-1,9.186552048E0,2.652775526E0
2.281870707E0,-2.992752194E-1,9.234436035E0,2.748543501E0
2.283854318E0,-3.447650373E-1,9.277531624E0,2.832340717E0
2.285868445E0,-3.663128614E-1,9.291896820E0,2.865859509E0
2.287852057E0,-3.663128614E-1,9.330204010E0,2.908955097E0
2.289866184E0,-3.519476354E-1,9.361329079E0,2.937685490E0
2.291849796E0,-3.519476354E-1,9.366117477E0,2.954444885E0
2.293863923E0,-3.375824392E-1,9.361329079E0,2.978386879E0
2.295847534E0,-3.351882398E-1,9.346963882E0,2.952050686E0
2.297861662E0,-3.351882398E-1,9.320627213E0,2.920926094E0
2.299845273E0,-3.040636182E-1,9.291896820E0,2.861071110E0
2.301859400E0,-2.944868207E-1,9.232041359E0,2.772485495E0
2.303843012E0,-2.801215947E-1,9.172186852E0,2.719813108E0
2.305857139E0,-2.489969730E-1,9.153033257E0,2.628833532E0
2.307840751E0,-2.370259613E-1,9.107542992E0,2.583343744E0
2.309854878E0,-2.394201756E-1,9.054870605E0,2.547430515E0
2.311838489E0,-2.418143749E-1,9.040505409E0,2.535459518E0
2.313852617E0,-2.418143749E-1,9.002198219E0,2.545036316E0
2.315836228E0,-2.178723514E-1,8.939949036E0,2.566584110E0
2.317850356E0,-2.035071403E-1,8.918401718E0,2.571372509E0
2.319833967E0,-1.843535304E-1,8.863334656E0,2.614468336E0
2.321848095E0,-1.628057212E-1,8.798690796E0,2.619256735E0
2.323831706E0,-1.460463107E-1,8.772355080E0,2.616862535E0
2.325845834E0,-9.337386489E-2,8.734047890E0,2.597708941E0
2.327829444E0,-4.788403213E-2,8.678980827E0,2.561795712E0
2.329843573E0,-3.591302410E-2,8.662221909E0,2.540247917E0
2.331827183E0,-5.267243832E-2,8.655038834E0,2.506729126E0
2.333841311E0,-6.943184882E-2,8.676587105E0,2.480392933E0
2.335824922E0,-6.943184882E-2,8.683769226E0,2.475604534E0
2.337839050E0,-5.746084079E-2,8.710105896E0,2.482787132E0
2.339822661E0,-4.788403213E-2,8.734047890E0,2.492363930E0
2.341836789E0,-4.548983276E-2,8.808267593E0,2.516305923E0
2.343820399E0,-5.267243832E-2,8.825027466E0,2.533065319E0
2.345834527E0,-9.097966552E-2,8.865729332E0,2.597708941E0
2.347818138E0,-1.268926859E-1,8.889671326E0,2.664746523E0
2.349832266E0,-1.436520964E-1,8.913613319E0,2.686294317E0
2.351815877E0,-1.939303428E-1,8.961497307E0,2.700659513E0
2.353830005E0,-2.250549644E-1,9.009381294E0,2.679111719E0
2.355813615E0,-2.394201756E-1,9.040505409E0,2.664746523E0
2.357827744E0,-2.154781520E-1,9.117119789E0,2.643198729E0
2.359811354E0,-2.059013397E-1,9.172186852E0,2.595314741E0
2.361825482E0,-1.963245422E-1,9.200917244E0,2.573766708E0
2.363809093E0,-1.747767180E-1,9.282320023E0,2.549824715E0
2.365823221E0,-1.556231081E-1,9.325415611E0,2.547430515E0
2.367806832E0,-1.244984865E-1,9.332598686E0,2.571372509E0
2.369820960E0,-1.915361360E-2,9.320627213E0,2.612074137E0
2.371804570E0,2.633621916E-2,9.291896820E0,2.607285738E0
2.373818699E0,3.591302410E-2,9.267954826E0,2.597708941E0
2.375802309E0,7.182604820E-2,9.220070839E0,2.595314741E0
2.377816437E0,4.788403213E-2,9.148244858E0,2.614468336E0
2.379800048E0,4.788403399E-3,9.093177795E0,2.650381327E0
2.381814176E0,-1.197100803E-2,9.054870605E0,2.683900118E0
2.383797787E0,-2.394201607E-2,8.987833023E0,2.741360903E0
2.385811915E0,-3.112462163E-2,8.899248123E0,2.772485495E0
2.387795525E0,-2.154781483E-2,8.860940933E0,2.791639090E0
2.389809654E0,-1.675941236E-2,8.803479195E0,2.825158119E0
2.391793264E0,1.675941236E-2,8.736441612E0,2.853888512E0
2.393807392E0,2.633621916E-2,8.700529099E0,2.870647907E0
2.395791003E0,8.619125932E-2,8.626308441E0,2.892195702E0
2.397805131E0,1.388636976E-1,8.535328865E0,2.885013103E0
2.399788742E0,1.795651317E-1,8.499416351E0,2.892195702E0
2.401802870E0,2.178723514E-1,8.449137688E0,2.858676910E0
2.403786480E0,2.537853718E-1,8.362946510E0,2.798821688E0
2.405800608E0,2.609679997E-1,8.331821442E0,2.762908697E0
2.407784219E0,3.016694188E-1,8.305485725E0,2.693476915E0
2.409798347E0,3.351882398E-1,8.286332130E0,2.595314741E0
2.411781958E0,3.423708379E-1,8.271966934E0,2.547430515E0
2.413796086E0,3.423708379E-1,8.286332130E0,2.477998734E0
2.415779697E0,3.711012602E-1,8.307879448E0,2.444479942E0
2.417793825E0,3.950432837E-1,8.346187592E0,2.427720547E0
2.419777435E0,4.309563041E-1,8.358158112E0,2.415749550E0
2.421791563E0,5.099649429E-1,8.367734909E0,2.377442360E0
2.423775174E0,5.339069963E-1,8.394071579E0,2.279279947E0
2.425789302E0,5.602431893E-1,8.420407295E0,2.226607561E0
2.427772913E0,5.985504389E-1,8.441955566E0,2.130839586E0
2.429787041E0,6.105214357E-1,8.489839554E0,2.056619167E0
2.431801169E0,5.913678408E-1,8.518569946E0,2.015917778E0
2.433784780E0,5.793967843E-1,8.573636055E0,1.944091797E0
2.435798908E0,5.722141862E-1,8.638279915E0,1.889025092E0
2.437782518E0,5.698199868E-1,8.667010307E0,1.867477298E0
2.439796646E0,5.578489900E-1,8.748413086E0,1.865083098E0
2.441780257E0,5.458779931E-1,8.834604263E0,1.879448295E0
2.443794385E0,5.458779931E-1,8.875306129E0,1.891419291E0
2.445777996E0,5.410895944E-1,8.954314232E0,1.929726601E0
2.447792124E0,5.530605912E-1,9.004592896E0,1.975216389E0
2.449775735E0,5.554547906E-1,9.030928612E0,2.013523579E0
2.451789863E0,5.554547906E-1,9.045293808E0,2.027888775E0
2.453773473E0,5.770025849E-1,9.028534889E0,2.070984364E0
2.455787601E0,5.961562395E-1,8.973467827E0,2.104503393E0
2.457771212E0,6.009446383E-1,8.942343712E0,2.111685991E0
2.459785340E0,6.105214357E-1,8.860940933E0,2.128445387E0
2.461768951E0,6.129156351E-1,8.784325600E0,2.161964178E0
2.463783079E0,6.129156351E-1,8.743624687E0,2.157175779E0
2.465766689E0,6.081272364E-1,8.664615631E0,2.157175779E0
2.467780818E0,5.961562395E-1,8.597578049E0,2.183511972E0
2.469764428E0,5.913678408E-1,8.561665535E0,2.205059767E0
2.471778556E0,6.009446383E-1,8.494627953E0,2.231395960E0
2.473762167E0,6.129156351E-1,8.456320763E0,2.269703150E0
2.475776295E0,6.272808313E-1,8.439560890E0,2.274491549E0
2.477759906E0,6.727706790E-1,8.420407295E0,2.279279947E0
2.479774034E0,6.536170840E-1,8.422801971E0,2.238578558E0
2.481757644E0,6.488286853E-1,8.432378769E0,2.202665567E0
2.483771773E0,6.655880809E-1,8.446743965E0,2.128445387E0
2.485755383E0,6.607996821E-1,8.458714485E0,2.035071373E0
2.487769511E0,6.560112834E-1,8.504204750E0,1.941697598E0
2.489753122E0,6.655880809E-1,8.523358345E0,1.889025092E0
2.491767250E0,6.967126727E-1,8.576030731E0,1.786074519E0
2.493750861E0,7.110779285E-1,8.638279915E0,1.719036818E0
2.495764989E0,7.134721279E-1,8.659827232E0,1.699883223E0
2.497779117E0,6.823474765E-1,8.762778282E0,1.659181833E0
2.499762728E0,6.296750307E-1,8.848969460E0,1.640028119E0
2.501776856E0,6.153098345E-1,8.896853447E0,1.628057122E0
2.503760466E0,5.650315881E-1,9.002198219E0,1.618480325E0
2.505774594E0,5.195417404E-1,9.112331390E0,1.644816518E0
2.507758205E0,4.908113480E-1,9.162610054E0,1.666364431E0
2.509772333E0,4.596867263E-1,9.244012833E0,1.711854219E0
2.511755944E0,3.806780577E-1,9.311050415E0,1.819593310E0
2.513770072E0,3.208230138E-1,9.366117477E0,1.877054095E0
2.515753682E0,2.705447972E-1,9.461885452E0,2.008735180E0
2.517767811E0,2.082955539E-1,9.540893555E0,2.135627985E0
2.519751421E0,1.556231081E-1,9.607931137E0,2.214636564E0
2.521765549E0,6.943184882E-2,9.636661530E0,2.365471363E0
2.523749160E0,3.351882473E-2,9.696516991E0,2.513911724E0
2.525763288E0,4.309562966E-2,9.718064308E0,2.657563925E0
2.527746899E0,5.027823523E-2,9.718064308E0,2.710236311E0
2.529761027E0,3.830722719E-2,9.686940193E0,2.772485495E0
2.531744637E0,4.070143029E-2,9.662998199E0,2.806004286E0
2.533758766E0,5.027823523E-2,9.641449928E0,2.808398485E0
2.535742376E0,5.506663769E-2,9.552865028E0,2.789244890E0
2.537756504E0,5.027823523E-2,9.466673851E0,2.758120298E0
2.539740115E0,5.027823523E-2,9.449913979E0,2.746149302E0
2.541754243E0,5.985504389E-2,9.385271072E0,2.715024710E0
2.543737854E0,6.943184882E-2,9.330204010E0,2.681505919E0
2.545751982E0,7.182604820E-2,9.318233490E0,2.664746523E0
2.547735592E0,8.619125932E-2,9.258378029E0,2.621650934E0
2.549749720E0,1.125274822E-1,9.248801231E0,2.554613113E0
2.551733331E0,1.125274822E-1,9.263166428E0,2.528276920E0
2.553747459E0,1.316810995E-1,9.308655739E0,2.477998734E0
2.555761587E0,1.508347094E-1,9.366117477E0,2.396595955E0
2.557745198E0,1.556231081E-1,9.425971985E0,2.360682964E0
2.559759326E0,1.484405100E-1,9.469067574E0,2.358288765E0
2.561742937E0,1.747767180E-1,9.550470352E0,2.370259762E0
2.563757065E0,2.059013397E-1,9.643844604E0,2.353500366E0
2.565740675E0,2.274491638E-1,9.682151794E0,2.353500366E0
2.567754804E0,2.489969730E-1,9.756371498E0,2.372653961E0
2.569738414E0,2.418143749E-1,9.830592155E0,2.396595955E0
2.571752542E0,2.178723514E-1,9.861717224E0,2.418143749E0
2.573736153E0,1.532289088E-1,9.923966408E0,2.470816135E0
2.575750281E0,6.943184882E-2,9.988609314E0,2.564189911E0
2.577733892E0,3.351882473E-2,1.001494598E1,2.628833532E0
2.579748020E0,1.436521020E-2,1.004607010E1,2.758120298E0
2.581731630E0,4.788403399E-3,1.006043530E1,2.894589901E0
2.583745759E0,-1.197100803E-2,1.006761837E1,2.966415882E0
2.585729369E0,-1.197100803E-2,1.007958889E1,3.126827478E0
2.587743497E0,-4.788403213E-2,1.006043530E1,3.275267839E0
2.589727108E0,-6.943184882E-2,1.005325317E1,3.347094059E0
2.591741236E0,-1.173158810E-1,1.004846478E1,3.473986626E0
2.593724847E0,-1.747767180E-1,1.006043530E1,3.596091032E0
2.595738975E0,-2.226607651E-1,1.007719517E1,3.727771997E0
2.597722585E0,-2.489969730E-1,1.008677197E1,3.801992416E0
2.599736713E0,-2.466027737E-1,1.011310768E1,3.931279182E0
2.601720324E0,-2.274491638E-1,1.010831928E1,4.058171749E0
2.603734452E0,-2.226607651E-1,1.010831928E1,4.115632534E0
2.605748580E0,-1.939303428E-1,1.010113716E1,4.216189384E0
2.607732191E0,-1.819593310E-1,1.009156036E1,4.295197964E0
2.609746319E0,-1.723825186E-1,1.007480049E1,4.328716755E0
2.611729930E0,-1.149216816E-1,1.000776291E1,4.393360138E0
2.613744058E0,-4.788403213E-2,9.952696800E0,4.438849926E0
2.615727668E0,-1.436521020E-2,9.916783333E0,4.443638325E0
2.617741797E0,5.267243832E-2,9.847352028E0,4.448426723E0
2.619725407E0,1.508347094E-1,9.751583099E0,4.414907932E0
2.621739535E0,2.035071403E-1,9.730035782E0,4.388571739E0
2.623723146E0,2.753331959E-1,9.679757118E0,4.299986362E0
2.625737274E0,3.447650373E-1,9.622296333E0,4.223371983E0
2.627720885E0,3.926490843E-1,9.610325813E0,4.161122322E0
2.629735013E0,4.620809257E-1,9.600749016E0,4.139574528E0
2.631718623E0,5.171475410E-1,9.583989143E0,4.082113743E0
2.633732751E0,5.817909837E-1,9.574412346E0,4.031835556E0
2.635746880E0,6.200982332E-1,9.581595421E0,4.005499363E0
2.637730490E0,7.015010715E-1,9.586383820E0,3.938461781E0
2.639744618E0,7.661445141E-1,9.622296333E0,3.847482204E0
2.641728229E0,7.805097699E-1,9.634267807E0,3.797203779E0
2.643742357E0,7.805097699E-1,9.627084732E0,3.706224203E0
2.645725968E0,7.517793179E-1,9.648633003E0,3.648763418E0
2.647740096E0,7.350199223E-1,9.660603523E0,3.627215624E0
2.649723706E0,6.177040339E-1,9.694122314E0,3.646369219E0
2.651737835E0,4.692635238E-1,9.751583099E0,3.749319792E0
2.653721445E0,4.070142806E-1,9.789890289E0,3.809175014E0
2.655735573E0,2.561795712E-1,9.890447617E0,3.969586372E0
2.657719184E0,1.436520964E-1,9.974244118E0,4.120420933E0
2.659733312E0,7.900865376E-2,1.003888798E1,4.192247391E0
2.661716923E0,-6.224924326E-2,1.007240677E1,4.283226967E0
2.663731051E0,-2.178723514E-1,1.015380955E1,4.369418144E0
2.665714661E0,-3.782838583E-1,1.022563553E1,4.407725334E0
2.667728790E0,-4.596867263E-1,1.027112484E1,4.417302132E0
2.669712400E0,-5.961562395E-1,1.035731697E1,4.443638325E0
2.671726528E0,-6.679822803E-1,1.047223854E1,4.446032524E0
2.673710139E0,-6.847416759E-1,1.051772785E1,4.446032524E0
2.675724267E0,-7.206547260E-1,1.062786102E1,4.431667328E0
2.677738394E0,-7.158663273E-1,1.077390766E1,4.395754337E0
2.679722006E0,-6.967126727E-1,1.082658005E1,4.350264549E0
2.681736133E0,-6.392518282E-1,1.092234802E1,4.232948780E0
2.683719744E0,-5.937620401E-1,1.100135708E1,4.067748547E0
2.685733873E0,-5.626373887E-1,1.103248119E1,3.986345768E0
2.687717483E0,-4.453215301E-1,1.107557678E1,3.816357613E0
2.689731611E0,-3.327940404E-1,1.110430717E1,3.639186621E0
2.691715222E0,-2.825157940E-1,1.110191345E1,3.550601006E0
2.693729350E0,-2.418143749E-1,1.108994198E1,3.394978046E0
2.695712961E0,-1.628057212E-1,1.108754826E1,3.373430252E0
2.697727089E0,-6.943184882E-2,1.105163479E1,3.308786631E0
2.699710699E0,2.394201607E-2,1.103008747E1,3.270479441E0
2.701724828E0,5.267243832E-2,1.097262669E1,3.213018656E0
2.703708438E0,1.197100878E-1,1.090558910E1,3.224989653E0
2.705722566E0,1.340752989E-1,1.088164711E1,3.234566450E0
2.707706177E0,1.675941199E-1,1.080263805E1,3.215412855E0
2.709720305E0,2.418143749E-1,1.076911926E1,3.167528868E0
2.711703916E0,2.777273953E-1,1.074278259E1,3.124433279E0
2.713718044E0,3.351882398E-1,1.069489861E1,3.040636063E0
2.715701654E0,4.189853072E-1,1.064940929E1,2.949656487E0
2.717715782E0,4.572925270E-1,1.062786102E1,2.913743496E0
2.719729910E0,5.291185975E-1,1.060391903E1,2.841917515E0
2.721713521E0,5.793967843E-1,1.060870743E1,2.806004286E0
2.723727648E0,5.889736414E-1,1.061110210E1,2.810792685E0
2.725711260E0,6.177040339E-1,1.059673691E1,2.849100113E0
2.727725387E0,6.296750307E-1,1.061828423E1,2.822763920E0
2.729708999E0,6.320692301E-1,1.063983250E1,2.825158119E0
2.731723126E0,6.224924326E-1,1.069250488E1,2.877830505E0
2.733706737E0,5.698199868E-1,1.074278259E1,2.959233284E0
2.735720865E0,5.075707436E-1,1.080503273E1,3.055001259E0
2.737704476E0,4.932055473E-1,1.083855152E1,3.093308687E0
2.739718603E0,4.501099288E-1,1.089601231E1,3.124433279E0
2.741702215E0,3.878606856E-1,1.093431950E1,3.076549292E0
2.743716342E0,3.974374831E-1,1.095826149E1,3.059789658E0
2.745699954E0,4.596867263E-1,1.096544361E1,3.043030262E0
2.747714082E0,4.118026793E-1,1.097741508E1,3.004723072E0
2.749697692E0,3.711012602E-1,1.098459721E1,2.968810081E0
2.751711821E0,3.040636182E-1,1.097262669E1,2.940079689E0
2.753695431E0,2.681505978E-1,1.094868469E1,2.935291290E0
2.755709559E0,2.489969730E-1,1.092474270E1,2.930502892E0
2.757723686E0,2.059013397E-1,1.089840603E1,2.956839085E0
2.759707298E0,1.795651317E-1,1.086488724E1,2.983175278E0
2.761721425E0,1.747767180E-1,1.085531044E1,3.007117271E0
2.763705037E0,1.532289088E-1,1.085052204E1,3.047818661E0
2.765719164E0,1.125274822E-1,1.080503273E1,3.076549292E0
2.767702775E0,9.097966552E-2,1.075235939E1,3.098097086E0
2.769716903E0,3.591302410E-2,1.071405220E1,3.114856482E0
2.771700514E0,-4.070143029E-2,1.063504410E1,3.162740469E0
2.773714641E0,-1.604115069E-1,1.058476543E1,3.217807055E0
2.775698253E0,-2.489969730E-1,1.056561184E1,3.268085241E0
2.777712380E0,-3.926490843E-1,1.052491093E1,3.383007050E0
2.779695992E0,-5.219359994E-1,1.049857426E1,3.502717018E0
2.781710119E0,-5.722141862E-1,1.051054573E1,3.572149038E0
2.783693730E0,-6.416460276E-1,1.052730465E1,3.684676409E0
2.785707858E0,-7.038952708E-1,1.054406452E1,3.773261786E0
2.787691469E0,-7.278373241E-1,1.055124664E1,3.801992416E0
2.789705596E0,-7.613561153E-1,1.057040024E1,3.816357613E0
2.791689208E0,-7.829039693E-1,1.059194851E1,3.734954596E0
2.793703335E0,-7.805097699E-1,1.059913063E1,3.670311213E0
2.795686947E0,-7.613561153E-1,1.058955383E1,3.497928619E0
2.797701074E0,-7.158663273E-1,1.057758331E1,3.272873640E0
2.799684685E0,-7.015010715E-1,1.058237171E1,3.143586874E0
2.801698812E0,-6.631938815E-1,1.056082344E1,2.913743496E0
2.803682424E0,-6.368576288E-1,1.055842972E1,2.691082716E0
2.805696552E0,-6.488286853E-1,1.052730465E1,2.545036316E0
2.807680163E0,-6.440402865E-1,1.052012253E1,2.494758129E0
2.809694291E0,-6.081272364E-1,1.051293945E1,2.413355350E0
2.811677902E0,-5.434837937E-1,1.049139214E1,2.363077164E0
2.813692030E0,-5.003881454E-1,1.047702694E1,2.343923569E0
2.815675640E0,-4.357447028E-1,1.042435455E1,2.303221941E0
2.817689768E0,-3.471592367E-1,1.035252857E1,2.260126352E0
2.819673379E0,-3.088520169E-1,1.032619190E1,2.245761156E0
2.821687507E0,-2.585737705E-1,1.024000072E1,2.214636564E0
2.823671118E0,-2.011129409E-1,1.015380955E1,2.202665567E0
2.825685246E0,-1.891419291E-1,1.009874249E1,2.197877169E0
2.827668856E0,-1.292868853E-1,1.000536919E1,2.224213362E0
2.829682985E0,-6.703764945E-2,9.911994934E0,2.286462545E0
2.831666595E0,-3.591302410E-2,9.859322548E0,2.327163935E0
2.833680723E0,5.746084079E-2,9.763554573E0,2.420537949E0
2.835694851E0,1.268926859E-1,9.679757118E0,2.516305923E0
2.837678462E0,1.556231081E-1,9.579200745E0,2.561795712E0
2.839692589E0,2.250549644E-1,9.536105156E0,2.640804529E0
2.841676201E0,2.777273953E-1,9.457097054E0,2.710236311E0
2.843690328E0,3.256114423E-1,9.380482674E0,2.796427488E0
2.845673940E0,3.519476354E-1,9.346963882E0,2.834734917E0
2.847688067E0,3.974374831E-1,9.267954826E0,2.894589901E0
2.849671678E0,4.620809257E-1,9.212887764E0,2.928108692E0
2.851685805E0,4.836287498E-1,9.181763649E0,2.947262287E0
2.853669417E0,5.243301988E-1,9.097966194E0,2.971204281E0
2.855683544E0,5.746083856E-1,9.011775017E0,2.990357876E0
2.857667156E0,5.961562395E-1,8.973467827E0,3.002328873E0
2.859681283E0,6.392518282E-1,8.887276649E0,3.009511471E0
2.861664894E0,6.703764796E-1,8.813055992E0,2.997540474E0
2.863679022E0,6.799532771E-1,8.774748802E0,2.997540474E0
2.865662633E0,7.254431248E-1,8.693346024E0,2.997540474E0
2.867676761E0,7.326257229E-1,8.633491516E0,3.007117271E0
2.869660372E0,7.278373241E-1,8.607154846E0,3.019088268E0
2.871674500E0,7.278373241E-1,8.530540466E0,3.033453465E0
2.873658111E0,7.110779285E-1,8.489839554E0,3.023876667E0
2.875672239E0,7.086837292E-1,8.473079681E0,3.028665066E0
2.877655849E0,7.062895298E-1,8.465897560E0,3.028665066E0
2.879669978E0,6.871358752E-1,8.480262756E0,3.035847664E0
2.881653588E0,6.703764796E-1,8.523358345E0,3.040636063E0
2.883667716E0,6.584054828E-1,8.537723541E0,3.038241863E0
2.885651327E0,6.296750307E-1,8.607154846E0,3.035847664E0
2.887665455E0,5.937620401E-1,8.662221909E0,3.016694069E0
2.889649066E0,5.602431893E-1,8.690952301E0,2.997540474E0
2.891663194E0,5.195417404E-1,8.734047890E0,2.978386879E0
2.893646804E0,4.668693244E-1,8.793902397E0,2.952050686E0
2.895660933E0,4.357447028E-1,8.820239067E0,2.935291290E0
2.897644543E0,3.567360640E-1,8.875306129E0,2.918531895E0
2.899658671E0,2.681505978E-1,8.923190117E0,2.896984100E0
2.901642282E0,2.250549644E-1,8.937555313E0,2.887407303E0
2.903656410E0,1.939303428E-1,8.980650902E0,2.892195702E0
2.905640021E0,1.508347094E-1,8.987833023E0,2.906560898E0
2.907654149E0,1.292868853E-1,8.990227699E0,2.916137695E0
2.909668276E0,1.029506698E-1,8.999804497E0,2.959233284E0
2.911651887E0,8.619125932E-2,8.990227699E0,2.980781078E0
2.913666015E0,8.379705995E-2,8.966285706E0,3.016694069E0
2.915649626E0,7.661445439E-2,8.947132111E0,3.021482468E0
2.917663753E0,6.464344263E-2,8.942343712E0,3.011905670E0
2.919647365E0,8.379705995E-2,8.913613319E0,3.004723072E0
2.921661492E0,8.619125932E-2,8.899248123E0,2.987963676E0
2.923645104E0,8.619125932E-2,8.884882927E0,2.935291290E0
2.925659231E0,1.029506698E-1,8.832210541E0,2.875436306E0
2.927642842E0,1.101332754E-1,8.822632790E0,2.837129116E0
2.929656971E0,1.125274822E-1,8.815450668E0,2.760514498E0
2.931640581E0,1.268926859E-1,8.798690796E0,2.705447912E0
2.933654709E0,1.388636976E-1,8.793902397E0,2.686294317E0
2.935638320E0,1.771709323E-1,8.779537201E0,2.655169725E0
2.937652448E0,2.106897533E-1,8.746018410E0,2.624045134E0
2.939636059E0,2.250549644E-1,8.726864815E0,2.607285738E0
2.941650187E0,2.489969730E-1,8.702922821E0,2.571372509E0
2.943664314E0,2.657563984E-1,8.669404030E0,2.564189911E0
2.945647925E0,2.681505978E-1,8.659827232E0,2.576161146E0
2.947662053E0,2.609679997E-1,8.640673637E0,2.602497339E0
2.949645664E0,2.489969730E-1,8.616731644E0,2.683900118E0
2.951659791E0,2.322375625E-1,8.609549522E0,2.767697096E0
2.953643403E0,2.178723514E-1,8.623914719E0,2.825158119E0
2.955657530E0,1.819593310E-1,8.640673637E0,2.985569477E0
2.957641142E0,1.340752989E-1,8.657433510E0,3.138798475E0
2.959655269E0,1.149216816E-1,8.667010307E0,3.208230257E0
2.961638880E0,7.661445439E-2,8.690952301E0,3.359065056E0
2.963653008E0,2.873042040E-2,8.693346024E0,3.481169224E0
2.965636619E0,9.576806799E-3,8.686163902E0,3.524264812E0
2.967650746E0,-3.112462163E-2,8.669404030E0,3.593696833E0
2.969634358E0,-1.005564705E-1,8.647856712E0,3.634398222E0
2.971648485E0,-1.268926859E-1,8.643068314E0,3.655946016E0
2.973632097E0,-1.580173075E-1,8.619126320E0,3.696647406E0
2.975646224E0,-1.412578970E-1,8.566453934E0,3.715801001E0
2.977660352E0,-1.173158810E-1,8.554482460E0,3.725377798E0
2.979643963E0,-5.267243832E-2,8.520963669E0,3.715801001E0
2.981658091E0,-4.788403399E-3,8.492233276E0,3.670311213E0
2.983641701E0,6.224924326E-2,8.434772491E0,3.610456228E0
2.985655829E0,8.858546615E-2,8.398859978E0,3.584120035E0
2.987639440E0,1.221042871E-1,8.346187592E0,3.502717018E0
2.989653568E0,1.340752989E-1,8.286332130E0,3.423708439E0
2.991637180E0,1.268926859E-1,8.257601738E0,3.387795448E0
2.993651307E0,1.244984865E-1,8.231265068E0,3.287238836E0
2.995634918E0,1.388636976E-1,8.188169479E0,3.179499865E0
2.997649046E0,1.388636976E-1,8.171410561E0,3.122039080E0
2.999632657E0,1.412578970E-1,8.161833763E0,3.004723072E0
3.001646784E0,1.484405100E-1,8.171410561E0,2.889801502E0
3.003630396E0,1.508347094E-1,8.183381081E0,2.829946518E0
3.005644523E0,1.771709323E-1,8.216899872E0,2.691082716E0
3.007628135E0,1.771709323E-1,8.264783859E0,2.521094322E0
3.009642262E0,1.867477298E-1,8.303091049E0,2.442085743E0
3.011625873E0,2.489969730E-1,8.362946510E0,2.279279947E0
3.013640001E0,3.327940404E-1,8.441955566E0,2.097320795E0
3.015623612E0,3.782838583E-1,8.499416351E0,1.934514999E0
3.017637739E0,4.453215301E-1,8.532935143E0,1.845929503E0
3.019621351E0,4.955997467E-1,8.580819130E0,1.683123827E0
3.021635478E0,5.578489900E-1,8.614337921E0,1.525106430E0
3.023619090E0,6.009446383E-1,8.626308441E0,1.453280449E0
3.025633217E0,6.847416759E-1,8.633491516E0,1.326387763E0
3.027616828E0,7.517793179E-1,8.626308441E0,1.206677675E0
3.029630955E0,7.805097699E-1,8.609549522E0,1.165976286E0
3.031614567E0,8.259995580E-1,8.578424454E0,1.130063176E0
3.033628694E0,8.236053586E-1,8.540117264E0,1.146822572E0
3.035612306E0,8.212111592E-1,8.532935143E0,1.170764685E0
3.037626433E0,8.475474119E-1,8.516175270E0,1.268926859E0
3.039610045E0,8.762778044E-1,8.480262756E0,1.407790542E0
3.041624172E0,8.834604025E-1,8.444349289E0,1.472434044E0
3.043607783E0,8.882488012E-1,8.418013573E0,1.616086125E0
3.045621910E0,8.858546019E-1,8.384494781E0,1.742978811E0
3.047605522E0,8.571242094E-1,8.370129585E0,1.821987510E0
3.049619649E0,8.044517636E-1,8.339004517E0,1.977610588E0
3.051603261E0,7.565677166E-1,8.303091049E0,2.135627985E0
3.053617389E0,6.823474765E-1,8.276755333E0,2.293645144E0
3.055631516E0,6.488286853E-1,8.267178535E0,2.367865562E0
3.057615128E0,5.913678408E-1,8.269572258E0,2.521094322E0
3.059629255E0,5.482721925E-1,8.274360657E0,2.662352324E0
3.061612866E0,5.410895944E-1,8.281543732E0,2.724601507E0
3.063626994E0,5.099649429E-1,8.281543732E0,2.844311714E0
3.065610605E0,4.716577232E-1,8.269572258E0,2.937685490E0
3.067624732E0,4.668693244E-1,8.276755333E0,2.966415882E0
3.069608344E0,4.740519226E-1,8.274360657E0,3.023876667E0
3.071622471E0,4.764461517E-1,8.283937454E0,3.031059265E0
3.073606083E0,4.860229492E-1,8.269572258E0,3.026270866E0
3.075620210E0,5.315127969E-1,8.250418663E0,2.987963676E0
3.077603821E0,5.626373887E-1,8.231265068E0,2.911349297E0
3.079617948E0,5.770025849E-1,8.221688271E0,2.865859509E0
3.081601560E0,5.937620401E-1,8.219294548E0,2.777273893E0
3.083615687E0,6.153098345E-1,8.204929352E0,2.688688517E0
3.085599299E0,6.248866320E-1,8.200140953E0,2.647987127E0
3.087613426E0,6.416460276E-1,8.216899872E0,2.573766708E0
3.089597038E0,6.607996821E-1,8.262390137E0,2.501940727E0
3.091611165E0,6.943184733E-1,8.300697327E0,2.454056740E0
3.093594776E0,6.991068721E-1,8.322244644E0,2.451662540E0
3.095608903E0,7.015010715E-1,8.372523308E0,2.442085743E0
3.097592515E0,7.254431248E-1,8.429984093E0,2.437297344E0
3.099606642E0,7.302315235E-1,8.451532364E0,2.444479942E0
3.101590254E0,7.326257229E-1,8.492233276E0,2.456450939E0
3.103604381E0,7.541735172E-1,8.525752068E0,2.466027737E0
3.105618509E0,7.637503147E-1,8.540117264E0,2.461239338E0
3.107602120E0,7.900865674E-1,8.580819130E0,2.439691544E0
3.109616248E0,8.044517636E-1,8.616731644E0,2.422932148E0
3.111599859E0,8.068459630E-1,8.623914719E0,2.398990154E0
3.113613986E0,7.924807668E-1,8.640673637E0,2.358288765E0
3.115597598E0,8.164227605E-1,8.669404030E0,2.298433542E0
3.117611725E0,8.331822157E-1,8.676587105E0,2.286462545E0
3.119595337E0,8.595184088E-1,8.717288017E0,2.284068346E0
3.121609464E0,8.930372596E-1,8.736441612E0,2.260126352E0
3.123593076E0,9.097966552E-1,8.779537201E0,2.257732153E0
3.125607203E0,9.481038451E-1,8.801085472E0,2.250549555E0
3.127590814E0,9.624691010E-1,8.846575737E0,2.255337954E0
3.129604941E0,9.720458984E-1,8.906430244E0,2.257732153E0
3.131588553E0,9.648633003E-1,8.942343712E0,2.248155355E0
3.133602680E0,9.624691010E-1,9.009381294E0,2.207453966E0
3.135586292E0,9.217676520E-1,9.100360870E0,2.133233786E0
3.137600419E0,9.050082564E-1,9.145850182E0,2.090138197E0
3.139584030E0,8.643068075E-1,9.220070839E0,2.020706177E0
3.141598158E0,8.068459630E-1,9.334992409E0,1.951274395E0
3.143581769E0,7.805097699E-1,9.394847870E0,1.915361404E0
3.145595896E0,7.015010715E-1,9.528923035E0,1.891419291E0
3.147610025E0,6.033388376E-1,9.653421402E0,1.869871497E0
3.149593635E0,5.482721925E-1,9.710882187E0,1.874659896E0
3.151607763E0,4.477157295E-1,9.835380554E0,1.900996208E0
3.153591374E0,3.591302633E-1,9.940725327E0,1.956062794E0
3.155605502E0,2.896983922E-1,1.003649330E1,1.991975784E0
3.157589113E0,1.532289088E-1,1.008437729E1,2.068590164E0
3.159603241E0,2.154781483E-2,1.016099167E1,2.176329374E0
3.161586851E0,-9.576806426E-2,1.024000072E1,2.262520552E0
3.163600979E0,-1.532289088E-1,1.026633644E1,2.303221941E0
3.165584590E0,-2.466027737E-1,1.032858658E1,2.434903145E0
3.167598718E0,-3.160346150E-1,1.035971069E1,2.583343744E0
3.169582329E0,-3.447650373E-1,1.038365269E1,2.647987127E0
3.171596457E0,-4.165911078E-1,1.039562416E1,2.777273893E0
3.173580069E0,-5.027823448E-1,1.042674828E1,2.918531895E0
3.175594196E0,-5.315127969E-1,1.043393135E1,2.985569477E0
3.177577807E0,-5.578489900E-1,1.043153667E1,3.117250681E0
3.179591934E0,-5.530605912E-1,1.041477776E1,3.234566450E0
3.181575546E0,-5.506663918E-1,1.039322948E1,3.277662039E0
3.183589673E0,-5.195417404E-1,1.033098030E1,3.339911461E0
3.185573285E0,-4.668693244E-1,1.025915432E1,3.361459255E0
3.187587412E0,-4.501099288E-1,1.021605873E1,3.359065056E0
3.189571023E0,-4.070142806E-1,1.011789608E1,3.363853455E0
3.191585151E0,-3.878606856E-1,1.004607010E1,3.351882458E0
3.193568762E0,-3.782838583E-1,9.979032516E0,3.349488258E0
3.195582889E0,-3.878606856E-1,9.940725327E0,3.359065056E0
3.197566501E0,-3.663128614E-1,9.895236015E0,3.378218651E0
3.199580628E0,-3.615244627E-1,9.861717224E0,3.378218651E0
3.201594756E0,-3.543418646E-1,9.864110947E0,3.385401249E0
3.203578367E0,-3.280056417E-1,9.854534149E0,3.416525841E0
3.205592495E0,-3.064578176E-1,9.876082420E0,3.426102638E0
3.207576106E0,-2.873041928E-1,9.888052940E0,3.430891037E0
3.209590234E0,-2.825157940E-1,9.892841339E0,3.433285236E0
3.211573844E0,-2.920926213E-1,9.909601212E0,3.414131641E0
3.213587972E0,-2.896983922E-1,9.928754807E0,3.406949043E0
3.215571583E0,-2.825157940E-1,9.955090523E0,3.399766445E0
3.217585711E0,-2.920926213E-1,9.993397713E0,3.378218651E0
3.219569322E0,-2.896983922E-1,1.000776291E1,3.361459255E0
3.221583450E0,-2.753331959E-1,1.004846478E1,3.332728863E0
3.223567060E0,-2.633621991E-1,1.010113716E1,3.303998232E0
3.225581189E0,-2.777273953E-1,1.012507915E1,3.275267839E0
3.227564799E0,-2.992752194E-1,1.016578007E1,3.217807055E0
3.229578927E0,-3.351882398E-1,1.019451046E1,3.160346270E0
3.231562538E0,-3.375824392E-1,1.024239445E1,3.124433279E0
3.233576666E0,-3.303998411E-1,1.026873112E1,3.114856482E0
3.235560278E0,-2.992752194E-1,1.031422138E1,3.095702887E0
3.237574405E0,-2.657563984E-1,1.035731697E1,3.071760893E0
3.239588533E0,-2.489969730E-1,1.036210537E1,3.057395458E0
3.241572144E0,-2.202665508E-1,1.037647057E1,3.043030262E0
3.243586272E0,-1.819593310E-1,1.037886429E1,3.021482468E0
3.245569882E0,-1.699883193E-1,1.037168217E1,3.014299870E0
3.247584010E0,-1.915361285E-1,1.035971069E1,3.019088268E0
3.249567621E0,-2.346317619E-1,1.034534550E1,3.023876667E0
3.251581749E0,-2.657563984E-1,1.034295177E1,3.038241863E0
3.253565360E0,-2.705447972E-1,1.035252857E1,3.062183857E0
3.255579488E0,-2.849099934E-1,1.038365269E1,3.088520288E0
3.257563099E0,-2.920926213E-1,1.039562416E1,3.110068083E0
3.259577227E0,-3.351882398E-1,1.042674828E1,3.148375273E0
3.261560837E0,-3.447650373E-1,1.048660374E1,3.172317266E0
3.263574965E0,-3.471592367E-1,1.051772785E1,3.184288263E0
3.265558576E0,-3.806780577E-1,1.052969933E1,3.186682463E0
3.267572704E0,-3.878606856E-1,1.055364132E1,3.174711466E0
3.269556315E0,-4.070142806E-1,1.057279491E1,3.143586874E0
3.271570443E0,-4.118026793E-1,1.059194851E1,3.110068083E0
3.273554053E0,-4.477157295E-1,1.061828423E1,3.031059265E0
3.275568182E0,-4.812345505E-1,1.063264942E1,2.952050686E0
3.277551792E0,-5.051765442E-1,1.065180302E1,2.916137695E0
3.279565920E0,-5.291185975E-1,1.070208168E1,2.863465309E0
3.281549531E0,-5.674257874E-1,1.074517727E1,2.829946518E0
3.283563659E0,-5.865794420E-1,1.076672459E1,2.834734917E0
3.285577787E0,-6.536170840E-1,1.081460953E1,2.851494312E0
3.287561398E0,-7.326257229E-1,1.082897472E1,2.920926094E0
3.289575526E0,-7.852981687E-1,1.084573364E1,2.968810081E0
3.291559137E0,-8.762778044E-1,1.086488724E1,3.055001259E0
3.293573265E0,-9.648633003E-1,1.085770512E1,3.134010077E0
3.295556875E0,-9.983820915E-1,1.084573364E1,3.160346270E0
3.297571003E0,-1.034295082E0,1.079545593E1,3.220201254E0
3.299554614E0,-1.060631394E0,1.076193619E1,3.265691042E0
3.301568742E0,-1.053448796E0,1.070208168E1,3.272873640E0
3.303552353E0,-1.051054597E0,1.066377449E1,3.282450438E0
3.305566481E0,-1.048660398E0,1.058955383E1,3.280056238E0
3.307550091E0,-1.043871999E0,1.052969933E1,3.287238836E0
3.309564220E0,-1.036689281E0,1.049618053E1,3.287238836E0
3.311547830E0,-9.768342972E-1,1.040759468E1,3.258508444E0
3.313561958E0,-9.313444495E-1,1.031900978E1,3.236960649E0
3.315545569E0,-9.097966552E-1,1.027591324E1,3.224989653E0
3.317559697E0,-8.523358107E-1,1.017056847E1,3.198653460E0
3.319543308E0,-7.733271718E-1,1.008198357E1,3.165134668E0
3.321557436E0,-7.445967197E-1,1.003409958E1,3.150769472E0
3.323541046E0,-6.751648784E-1,9.955090523E0,3.114856482E0
3.325555175E0,-6.033388376E-1,9.902418137E0,3.119644880E0
3.327538785E0,-5.650315881E-1,9.890447617E0,3.122039080E0
3.329552913E0,-4.596867263E-1,9.861717224E0,3.110068083E0
3.331536524E0,-3.375824392E-1,9.840168953E0,3.114856482E0
3.333550652E0,-2.801215947E-1,9.830592155E0,3.124433279E0
3.335534263E0,-1.508347094E-1,9.823410034E0,3.110068083E0
3.337548391E0,-4.548983276E-2,9.844957352E0,3.102885485E0
3.339562519E0,9.097966552E-2,9.885659218E0,3.105279684E0
3.341546130E0,1.747767180E-1,9.902418137E0,3.100491285E0
3.343560258E0,3.663128614E-1,9.933543205E0,3.043030262E0
3.345543868E0,5.410895944E-1,9.962273598E0,2.930502892E0
3.347557996E0,6.440402865E-1,9.967061996E0,2.856282711E0
3.349541607E0,8.427590132E-1,9.988609314E0,2.652775526E0
3.351555735E0,1.027112484E0,9.998186111E0,2.377442360E0
3.353539346E0,1.127668977E0,9.991003990E0,2.226607561E0
3.355553474E0,1.278503656E0,1.001494598E1,1.917755604E0
3.357537084E0,1.347935557E0,1.005085850E1,1.618480325E0
3.359551213E0,1.371877551E0,1.007240677E1,1.467645645E0
3.361534823E0,1.403002143E0,1.011310768E1,1.216254473E0
3.363548951E0,1.403002143E0,1.019690514E1,1.017535686E0
3.365532562E0,1.398213744E0,1.023760605E1,9.361328483E-1
3.367546690E0,1.357512355E0,1.034055710E1,8.236053586E-1
3.369530301E0,1.300051570E0,1.045547867E1,7.900865674E-1
3.371544429E0,1.206677675E0,1.057997704E1,8.188169599E-1
3.373528039E0,1.144428372E0,1.064222622E1,8.427590132E-1
3.375542168E0,1.000776291E0,1.074996567E1,9.313444495E-1
3.377525778E0,8.714894056E-1,1.085052204E1,1.029506683E0
3.379539906E0,8.092401624E-1,1.088164711E1,1.084573388E0
3.381523517E0,6.512228847E-1,1.095347309E1,1.199495077E0
3.383537645E0,4.836287498E-1,1.097741508E1,1.307234168E0
3.385521256E0,3.974374831E-1,1.098938560E1,1.367089152E0
3.387535384E0,2.130839527E-1,1.097262669E1,1.508347034E0
3.389518994E0,7.182604820E-2,1.095107841E1,1.668758631E0
3.391533122E0,0.000000000E0,1.093910789E1,1.754949808E0
3.393516733E0,-1.484405100E-1,1.090080070E1,1.910573006E0
3.395530861E0,-2.489969730E-1,1.085291672E1,2.042253971E0
3.397514472E0,-2.992752194E-1,1.084333992E1,2.092532396E0
3.399528600E0,-3.854664862E-1,1.078827286E1,2.193088770E0
3.401512211E0,-4.261679053E-1,1.072362900E1,2.260126352E0
3.403526339E0,-4.644751251E-1,1.065419769E1,2.284068346E0
3.405509949E0,-5.530605912E-1,1.060870743E1,2.351106167E0
3.407524077E0,-6.679822803E-1,1.055364132E1,2.418143749E0
3.409507688E0,-7.565677166E-1,1.049378586E1,2.516305923E0
3.411521816E0,-8.044517636E-1,1.045547867E1,2.585737944E0
3.413505427E0,-8.786720037E-1,1.039322948E1,2.734178305E0
3.415519555E0,-9.121908545E-1,1.035013390E1,2.849100113E0
3.417503166E0,-9.313444495E-1,1.033816338E1,2.925714493E0
3.419517294E0,-9.672574997E-1,1.029506683E1,3.040636063E0
3.421500905E0,-9.720458984E-1,1.026873112E1,3.129221678E0
3.423515032E0,-9.792284966E-1,1.025436592E1,3.179499865E0
3.425498644E0,-1.007958889E0,1.026394272E1,3.277662039E0
3.427512771E0,-1.017535686E0,1.025436592E1,3.339911461E0
3.429496383E0,-1.019929886E0,1.024957752E1,3.361459255E0
3.431510510E0,-1.024718285E0,1.025436592E1,3.404554844E0
3.433494121E0,-1.063025594E0,1.027351952E1,3.459621429E0
3.435508249E0,-1.074996591E0,1.027591324E1,3.473986626E0
3.437491860E0,-1.094150186E0,1.028549004E1,3.502717018E0
3.439505987E0,-1.146822572E0,1.029267311E1,3.481169224E0
3.441489599E0,-1.209071875E0,1.036210537E1,3.490746021E0
3.443503726E0,-1.072602391E0,1.033337498E1,3.464409828E0
3.445517854E0,-1.094150186E0,1.035971069E1,3.330334663E0
3.447501465E0,-1.156399369E0,1.035252857E1,3.205836058E0
3.449515593E0,-1.142034173E0,1.034534550E1,3.189076662E0
3.451499203E0,-1.091755986E0,1.035971069E1,3.184288263E0
3.453513332E0,-1.053448796E0,1.033337498E1,3.150769472E0
3.455496942E0,-1.027112484E0,1.031661510E1,3.134010077E0
3.457511070E0,-9.744400978E-1,1.029267311E1,3.095702887E0
3.459494681E0,-9.433154464E-1,1.021366405E1,3.062183857E0
3.461508809E0,-9.265560508E-1,1.017775154E1,3.057395458E0
3.463492420E0,-8.978256583E-1,1.012029076E1,3.064578056E0
3.465506548E0,-8.906430602E-1,1.005804157E1,3.083731890E0
3.467490158E0,-8.906430602E-1,1.003888798E1,3.112462282E0
3.469504287E0,-9.289502501E-1,9.995792389E0,3.193865061E0
3.471487897E0,-9.504981041E-1,9.945513725E0,3.272873640E0
3.473502025E0,-9.576807022E-1,9.923966408E0,3.335123062E0
3.475485636E0,-9.481038451E-1,9.888052940E0,3.442862034E0
3.477499764E0,-9.193734527E-1,9.849745750E0,3.562572241E0
3.479483376E0,-9.097966552E-1,9.809044838E0,3.655946016E0
3.481497503E0,-8.930372596E-1,9.775525093E0,3.703830004E0
3.483481114E0,-8.810662031E-1,9.701305389E0,3.804386616E0
3.485495242E0,-8.523358107E-1,9.619902611E0,3.895366192E0
3.487478853E0,-8.451532125E-1,9.564835548E0,3.943250179E0
3.489492980E0,-8.475474119E-1,9.454702377E0,4.036623955E0
3.491476592E0,-8.092401624E-1,9.361329079E0,4.122815132E0
3.493490719E0,-7.852981687E-1,9.306262016E0,4.158728123E0
3.495474331E0,-7.254431248E-1,9.215282440E0,4.232948780E0
3.497488458E0,-6.679822803E-1,9.138668060E0,4.292803764E0
3.499472069E0,-6.488286853E-1,9.105149269E0,4.321534157E0
3.501486196E0,-5.937620401E-1,9.040505409E0,4.371812344E0
3.503469808E0,-5.602431893E-1,8.983044624E0,4.422090530E0
3.505483935E0,-5.602431893E-1,8.963891029E0,4.443638325E0
3.507467547E0,-5.506663918E-1,8.947132111E0,4.460397720E0
3.509481674E0,-5.339069963E-1,8.918401718E0,4.441244125E0
3.511465286E0,-5.267243981E-1,8.911218643E0,4.429273129E0
3.513479413E0,-5.171475410E-1,8.906430244E0,4.357447147E0
3.515463024E0,-4.979939461E-1,8.932766914E0,4.273650169E0
3.517477151E0,-5.003881454E-1,8.983044624E0,4.177882195E0
3.519460763E0,-4.908113480E-1,9.004592896E0,4.118026733E0
3.521474890E0,-4.572925270E-1,9.076418877E0,3.979163170E0
3.523489018E0,-3.950432837E-1,9.153033257E0,3.828328609E0
3.525472629E0,-3.782838583E-1,9.196128845E0,3.742137194E0
3.527456240E0,-3.088520169E-1,9.291896820E0,3.550601006E0
3.529470368E0,-2.537853718E-1,9.380482674E0,3.354276657E0
3.531484496E0,-2.298433632E-1,9.421183586E0,3.263296843E0
3.533468106E0,-1.891419291E-1,9.493009567E0,3.069366693E0
3.535482234E0,-1.508347094E-1,9.536105156E0,2.889801502E0
3.537465845E0,-1.412578970E-1,9.564835548E0,2.810792685E0
3.539479973E0,-1.268926859E-1,9.624691010E0,2.671929121E0
3.541463585E0,-9.576806426E-2,9.665391922E0,2.559401512E0
3.543477712E0,-9.337386489E-2,9.684545517E0,2.513911724E0
3.545461324E0,-7.182604820E-2,9.686940193E0,2.432508945E0
3.547475451E0,-3.830722719E-2,9.643844604E0,2.372653961E0
3.549459062E0,-2.633621916E-2,9.593565941E0,2.363077164E0
3.551473189E0,-2.873042040E-2,9.564835548E0,2.348711967E0
3.553456801E0,-3.351882473E-2,9.504981041E0,2.341529369E0
3.555470928E0,-2.633621916E-2,9.411606789E0,2.343923569E0
3.557454540E0,-3.351882473E-2,9.373299599E0,2.353500366E0
3.559468667E0,-6.224924326E-2,9.299078941E0,2.396595955E0
3.561452278E0,-1.149216816E-1,9.220070839E0,2.466027737E0
3.563466406E0,-1.197100878E-1,9.179368973E0,2.499546528E0
3.565450017E0,-1.436520964E-1,9.088389397E0,2.573766708E0
3.567464144E0,-1.460463107E-1,9.018958092E0,2.657563925E0
3.569447756E0,-1.412578970E-1,8.971074104E0,2.691082716E0
3.571461883E0,-1.173158810E-1,8.892065048E0,2.738966703E0
3.573445495E0,-1.053448766E-1,8.805873871E0,2.758120298E0
3.575459622E0,-1.125274822E-1,8.765172005E0,2.750937700E0
3.577443233E0,-1.005564705E-1,8.669404030E0,2.765302896E0
3.579457361E0,-1.053448766E-1,8.604761124E0,2.755726099E0
3.581440972E0,-8.619125932E-2,8.564059258E0,2.755726099E0
3.583455099E0,-3.351882473E-2,8.492233276E0,2.705447912E0
3.585438711E0,2.633621916E-2,8.418013573E0,2.671929121E0
3.587452838E0,3.830722719E-2,8.353369713E0,2.624045134E0
3.589436450E0,3.351882473E-2,8.329427719E0,2.600103140E0
3.591450577E0,3.351882473E-2,8.303091049E0,2.533065319E0
3.593434188E0,2.873042040E-2,8.291120529E0,2.456450939E0
3.595448316E0,3.830722719E-2,8.288725853E0,2.418143749E0
3.597431927E0,4.788403213E-2,8.319850922E0,2.348711967E0
3.599446054E0,5.746084079E-2,8.331821442E0,2.269703150E0
3.601429666E0,5.027823523E-2,8.339004517E0,2.229001760E0
3.603443794E0,4.309562966E-2,8.382100105E0,2.149993181E0
3.605427405E0,-7.182605099E-3,8.408436775E0,2.087743998E0
3.607441533E0,-3.591302410E-2,8.434772491E0,2.070984364E0
3.609425143E0,-5.746084079E-2,8.487444878E0,2.015917778E0
3.611439271E0,-4.788403213E-2,8.532935143E0,1.982398987E0
3.613422882E0,-4.309562966E-2,8.544905663E0,1.965639591E0
3.615437010E0,-1.436521020E-2,8.556877136E0,1.936909199E0
3.617420621E0,9.576806799E-3,8.578424454E0,1.891419291E0
3.619434749E0,2.633621916E-2,8.556877136E0,1.881842494E0
3.621418359E0,4.548983276E-2,8.540117264E0,1.865083098E0
3.623432488E0,7.900865376E-2,8.497021675E0,1.853112102E0
3.625416098E0,1.412578970E-1,8.451532364E0,1.836352706E0
3.627430226E0,1.532289088E-1,8.413225174E0,1.831564307E0
3.629413837E0,2.059013397E-1,8.334216118E0,1.829170108E0
3.631427965E0,2.609679997E-1,8.250418663E0,1.853112102E0
3.633411576E0,2.920926213E-1,8.202534676E0,1.857900500E0
3.635425704E0,3.136404157E-1,8.121131897E0,1.877054095E0
3.637409314E0,3.639186621E-1,8.056488991E0,1.889025092E0
3.639423443E0,3.902548850E-1,8.015787125E0,1.893813491E0
3.641407053E0,4.357447028E-1,7.960720539E0,1.929726601E0
3.643421181E0,4.836287498E-1,7.886500359E0,1.965639591E0
3.645404792E0,5.195417404E-1,7.845798969E0,1.994369984E0
3.647418920E0,5.793967843E-1,7.764396191E0,2.042253971E0
3.649402531E0,6.296750307E-1,7.704541206E0,2.073378563E0
3.651416659E0,6.560112834E-1,7.666234016E0,2.080561161E0
3.653461304E0,6.177040339E-1,7.642292023E0,2.039859772E0
3.655475432E0,7.924807668E-1,7.651868820E0,2.078166962E0
3.657459042E0,8.475474119E-1,7.627926826E0,2.075772762E0
3.659473170E0,8.403648138E-1,7.635109425E0,2.056619167E0
3.661456781E0,8.786720037E-1,7.678205013E0,1.975216389E0
3.663470909E0,9.528923035E-1,7.694964409E0,1.910573006E0
3.665454520E0,9.720458984E-1,7.714118004E0,1.874659896E0
3.667468648E0,9.959878922E-1,7.769184589E0,1.790862918E0
3.669452258E0,1.024718285E0,7.836222172E0,1.661576033E0
3.671466387E0,1.015141487E0,7.869740963E0,1.599326730E0
3.673449997E0,9.959878922E-1,7.958326340E0,1.467645645E0
3.675464125E0,1.024718285E0,8.066065788E0,1.333570361E0
3.677447736E0,1.046266198E0,8.111555099E0,1.249773264E0
3.679461864E0,1.063025594E0,8.183381081E0,1.098938584E0
3.681445475E0,1.053448796E0,8.271966934E0,9.672574997E-1
3.683459603E0,1.048660398E0,8.331821442E0,9.121908545E-1
3.685443213E0,1.015141487E0,8.410830498E0,8.499416113E-1
3.687457342E0,9.864110947E-1,8.518569946E0,8.355764151E-1
3.689440952E0,9.720458984E-1,8.616731644E0,8.643068075E-1
3.691455080E0,9.385270476E-1,8.659827232E0,9.002198577E-1
3.693438691E0,8.834604025E-1,8.738836288E0,9.888052940E-1
3.695452819E0,7.948749661E-1,8.808267593E0,1.120486379E0
3.697436430E0,7.326257229E-1,8.839392662E0,1.189918280E0
3.699450558E0,6.081272364E-1,8.901641846E0,1.352723956E0
3.701434168E0,4.955997467E-1,8.918401718E0,1.484405041E0
3.703448296E0,4.453215301E-1,8.930372238E0,1.539471745E0
3.705431907E0,3.399766386E-1,8.961497307E0,1.649604917E0
3.707446035E0,2.394201756E-1,8.975862503E0,1.769315004E0
3.709429646E0,1.915361285E-1,8.973467827E0,1.814804912E0
3.711443774E0,8.140286058E-2,8.983044624E0,1.924938202E0
3.713427385E0,-4.309562966E-2,8.985439301E0,2.006340981E0
3.715441513E0,-1.005564705E-1,8.992621422E0,2.044648170E0
3.717425123E0,-2.106897533E-1,8.997409821E0,2.121262789E0
3.719439251E0,-2.920926213E-1,8.995016098E0,2.185906172E0
3.721422862E0,-3.303998411E-1,8.997409821E0,2.212242365E0
3.723436990E0,-3.878606856E-1,9.016563416E0,2.284068346E0
3.725420601E0,-4.309563041E-1,9.050082207E0,2.336740971E0
3.727434729E0,-4.812345505E-1,9.057265282E0,2.379836559E0
3.729418339E0,-4.932055473E-1,9.066842079E0,2.391807556E0
3.731432468E0,-5.171475410E-1,9.093177795E0,2.418143749E0
3.733416078E0,-5.578489900E-1,9.112331390E0,2.439691544E0
3.735430206E0,-5.578489900E-1,9.129091263E0,2.437297344E0
3.737413817E0,-5.674257874E-1,9.188945770E0,2.401384354E0
3.739427945E0,-5.937620401E-1,9.234436035E0,2.346317768E0
3.741411556E0,-5.985504389E-1,9.265560150E0,2.324769735E0
3.743425684E0,-5.961562395E-1,9.320627213E0,2.269703150E0
3.745439812E0,-5.698199868E-1,9.378087997E0,2.209848166E0
3.747423423E0,-5.506663918E-1,9.406818390E0,2.188300371E0
3.749437551E0,-5.386953950E-1,9.452308655E0,2.166752577E0
3.751421161E0,-4.884171486E-1,9.483432770E0,2.140416384E0
3.753435289E0,-4.716577232E-1,9.490615845E0,2.123656988E0
3.755418900E0,-4.477157295E-1,9.514557838E0,2.087743998E0
3.757433028E0,-4.165911078E-1,9.552865028E0,2.068590164E0
3.759416639E0,-3.950432837E-1,9.569623947E0,2.054224968E0
3.761430767E0,-3.447650373E-1,9.579200745E0,2.018311977E0
3.763414378E0,-3.184288144E-1,9.588777542E0,2.001552582E0
3.765428506E0,-2.705447972E-1,9.603142738E0,2.003946781E0
3.767412116E0,-2.466027737E-1,9.617507935E0,2.001552582E0
3.769426244E0,-2.059013397E-1,9.581595421E0,2.018311977E0
3.771409855E0,-2.059013397E-1,9.555258751E0,2.032677174E0
3.773423983E0,-1.963245422E-1,9.548076630E0,2.051830769E0
3.775407594E0,-2.082955539E-1,9.512163162E0,2.073378563E0
3.777421722E0,-2.705447972E-1,9.485827446E0,2.102109194E0
3.779405332E0,-3.040636182E-1,9.466673851E0,2.111685991E0
3.781419461E0,-3.950432837E-1,9.481039047E0,2.140416384E0
3.783403071E0,-5.482721925E-1,9.521739960E0,2.257732153E0
3.785417199E0,-6.416460276E-1,9.562441826E0,2.339135170E0
3.787400810E0,-7.829039693E-1,9.646238327E0,2.530671120E0
3.789414938E0,-8.930372596E-1,9.758766174E0,2.760514498E0
3.791398549E0,-9.265560508E-1,9.811438560E0,2.877830505E0
3.793412677E0,-1.010353088E0,9.904812813E0,3.100491285E0
3.795396287E0,-1.101332784E0,9.995792389E0,3.303998232E0
3.797410416E0,-1.146822572E0,1.008916569E1,3.438073635E0
3.799394026E0,-1.233013868E0,1.013226128E1,3.483563423E0
3.801408154E0,-1.323993564E0,1.020648193E1,3.557783842E0
3.803391765E0,-1.388636947E0,1.025436592E1,3.584120035E0
3.805405893E0,-1.414973259E0,1.027830791E1,3.591302633E0
3.807420021E0,-1.431732655E0,1.032140350E1,3.552995205E0
3.809403632E0,-1.422155857E0,1.034534550E1,3.507505417E0
3.811417760E0,-1.422155857E0,1.035013390E1,3.481169224E0
3.813401370E0,-1.417367458E0,1.034774017E1,3.447650433E0
3.815415499E0,-1.398213744E0,1.035013390E1,3.428496838E0
3.817399109E0,-1.386242747E0,1.033816338E1,3.411737442E0
3.819413237E0,-1.333570361E0,1.030703831E1,3.375824451E0
3.821396848E0,-1.264138460E0,1.026873112E1,3.349488258E0
3.823410976E0,-1.213860273E0,1.023281765E1,3.325546265E0
3.825394587E0,-1.077390790E0,1.015380955E1,3.289633036E0
3.827408715E0,-9.552865028E-1,1.007240677E1,3.268085241E0
3.829392325E0,-9.074024558E-1,1.003409958E1,3.265691042E0
3.831406454E0,-8.355764151E-1,9.928754807E0,3.265691042E0
3.833390064E0,-7.924807668E-1,9.940725327E0,3.320757866E0
3.835404192E0,-6.129156351E-1,9.830592155E0,3.359065056E0
3.837387803E0,-6.033388376E-1,9.818621635E0,3.380612850E0
3.839401931E0,-5.865794420E-1,9.787496567E0,3.445256233E0
3.841385542E0,-4.884171486E-1,9.739612579E0,3.615244627E0
3.843399670E0,-4.333505034E-1,9.722852707E0,3.718195200E0
3.845383280E0,-3.615244627E-1,9.689333916E0,3.895366192E0
3.847397409E0,-2.944868207E-1,9.643844604E0,4.062960148E0
3.849381019E0,-2.513911724E-1,9.631873131E0,4.139574528E0
3.851395147E0,-1.675941199E-1,9.598354340E0,4.292803764E0
3.853378758E0,-9.576806426E-2,9.567230225E0,4.429273129E0
3.855392886E0,-7.661445439E-2,9.560047150E0,4.496310711E0
3.857376497E0,-3.351882473E-2,9.543288231E0,4.596867085E0
3.859390625E0,9.576806799E-3,9.497797966E0,4.716577530E0
3.861374235E0,1.915361360E-2,9.483432770E0,4.776432514E0
3.863388363E0,6.224924326E-2,9.476250648E0,4.905719280E0
3.865371974E0,1.364694983E-1,9.476250648E0,5.044582844E0
3.867386102E0,1.628057212E-1,9.447520256E0,5.176264286E0
3.869369713E0,2.442085743E-1,9.454702377E0,5.231330872E0
3.871383841E0,2.992752194E-1,9.423578262E0,5.351040840E0
3.873367451E0,3.639186621E-1,9.414001465E0,5.439626217E0
3.875381580E0,3.854664862E-1,9.402029991E0,5.487510204E0
3.877365190E0,4.860229492E-1,9.354146004E0,5.547365189E0
3.879379318E0,5.770025849E-1,9.320627213E0,5.583278179E0
3.881362929E0,6.368576288E-1,9.287108421E0,5.597643375E0
3.883377057E0,7.278373241E-1,9.253589630E0,5.602431774E0
3.885360668E0,8.164227605E-1,9.227252960E0,5.588066578E0
3.887374796E0,8.714894056E-1,9.227252960E0,5.561730385E0
3.889358406E0,9.481038451E-1,9.224859238E0,5.497087002E0
3.891372535E0,1.000776291E0,9.239224434E0,5.396530628E0
3.893356145E0,1.015141487E0,9.244012833E0,5.353435040E0
3.895370273E0,1.017535686E0,9.270348549E0,5.276820660E0
3.897353884E0,9.983820915E-1,9.320627213E0,5.209783077E0
3.899368012E0,9.600749016E-1,9.351752281E0,5.183446884E0
3.901351623E0,8.834604025E-1,9.440337181E0,5.152322292E0
3.903365751E0,7.733271718E-1,9.540893555E0,5.125985622E0
3.905349362E0,7.110779285E-1,9.655815125E0,5.104437828E0
3.907363490E0,5.578489900E-1,9.722852707E0,5.070919037E0
3.909347101E0,3.950432837E-1,9.864110947E0,4.979939461E0
3.911361228E0,2.346317619E-1,1.004128170E1,4.848258495E0
3.913344840E0,1.532289088E-1,1.011789608E1,4.759673119E0
3.915358967E0,-9.576806799E-3,1.028549004E1,4.596867085E0
3.917342579E0,-1.795651317E-1,1.050096893E1,4.446032524E0
3.919356706E0,-2.609679997E-1,1.060631371E1,4.393360138E0
3.921340317E0,-4.070142806E-1,1.082418633E1,4.297592163E0
3.923354444E0,-5.793967843E-1,1.102769279E1,4.230554581E0
3.925338056E0,-6.488286853E-1,1.111627865E1,4.199429989E0
3.927352183E0,-7.517793179E-1,1.126950741E1,4.170699596E0
3.929335795E0,-8.212111592E-1,1.139879417E1,4.161122322E0
3.931349922E0,-8.451532125E-1,1.144428444E1,4.161122322E0
3.933364050E0,-8.882488012E-1,1.151132202E1,4.122815132E0
3.935347661E0,-9.097966552E-1,1.156638813E1,4.058171749E0
3.937361789E0,-9.145850539E-1,1.158314800E1,4.022258759E0
3.939345399E0,-9.145850539E-1,1.160230160E1,3.907337189E0
3.941359528E0,-9.074024558E-1,1.159272480E1,3.766079187E0
3.943343138E0,-8.595184088E-1,1.153765774E1,3.608062029E0
3.945357266E0,-8.331822157E-1,1.150892735E1,3.533841610E0
3.947340877E0,-7.613561153E-1,1.145386124E1,3.380612850E0
3.949355005E0,-6.703764796E-1,1.138921738E1,3.196259260E0
3.951338616E0,-6.200982332E-1,1.137485218E1,3.102885485E0
3.953352744E0,-5.147533417E-1,1.134612179E1,2.954444885E0
3.955336354E0,-4.141969085E-1,1.133175659E1,2.813186884E0
3.957350482E0,-3.902548850E-1,1.132936287E1,2.748543501E0
3.959334093E0,-3.447650373E-1,1.134372807E1,2.590526342E0
3.961348221E0,-2.729389966E-1,1.136767006E1,2.420537949E0
3.963331832E0,-2.274491638E-1,1.138442898E1,2.346317768E0
3.965345960E0,-1.340752989E-1,1.142273617E1,2.157175779E0
3.967329572E0,-4.309562966E-2,1.147540855E1,2.003946781E0
3.969343699E0,-2.394201700E-3,1.150413895E1,1.932120800E0
3.971327310E0,5.506663769E-2,1.156159973E1,1.795651317E0
3.973341437E0,1.460463107E-1,1.159033012E1,1.654393315E0
3.975325049E0,1.723825186E-1,1.161427212E1,1.551442742E0
3.977339176E0,2.394201756E-1,1.163103199E1,1.517923832E0
3.979322788E0,2.777273953E-1,1.163821411E1,1.482010841E0
3.981336915E0,3.136404157E-1,1.162863731E1,1.467645645E0
3.983320526E0,3.160346150E-1,1.163582039E1,1.462857246E0
3.985334654E0,3.256114423E-1,1.162384892E1,1.448492050E0
3.987318265E0,3.280056417E-1,1.160230160E1,1.479616642E0
3.989332392E0,3.112462163E-1,1.159511852E1,1.489193439E0
3.991316004E0,2.633621991E-1,1.155441761E1,1.513135433E0
3.993330131E0,2.011129409E-1,1.150413895E1,1.563413739E0
3.995313743E0,1.604115069E-1,1.146822643E1,1.587355733E0
3.997327870E0,9.097966552E-2,1.141794777E1,1.661576033E0
3.999311481E0,3.591302410E-2,1.136527538E1,1.750161409E0
4.001325609E0,2.633621916E-2,1.133175659E1,1.786074519E0
4.003309220E0,-7.182604820E-2,1.129105568E1,1.810016513E0
4.005323347E0,-8.379705995E-2,1.123838234E1,1.874659896E0
4.007306959E0,-6.224924326E-2,1.119289303E1,1.929726601E0
4.009321086E0,-9.816227108E-2,1.110909557E1,2.013523579E0
4.011304698E0,-2.059013397E-1,1.104445267E1,2.073378563E0
4.013318825E0,-2.489969730E-1,1.099417400E1,2.171540976E0
4.015302436E0,-3.088520169E-1,1.097262669E1,2.221819162E0
4.017316564E0,-3.208230138E-1,1.091755962E1,2.296039343E0
4.019300175E0,-3.399766386E-1,1.089122391E1,2.341529369E0
4.021314302E0,-3.615244627E-1,1.088164711E1,2.353500366E0
4.023297914E0,-3.687070608E-1,1.086009884E1,2.353500366E0
4.025312041E0,-3.782838583E-1,1.083855152E1,2.296039343E0
4.027295653E0,-3.806780577E-1,1.083855152E1,2.272097349E0
4.029309781E0,-3.615244627E-1,1.085052204E1,2.185906172E0
4.031293391E0,-3.399766386E-1,1.082179165E1,2.111685991E0
4.033307519E0,-3.232172430E-1,1.081700325E1,2.075772762E0
4.035291130E0,-2.825157940E-1,1.080263805E1,2.006340981E0
4.037305258E0,-2.442085743E-1,1.077151299E1,1.910573006E0
4.039288869E0,-2.154781520E-1,1.077151299E1,1.857900500E0
4.041302997E0,-1.819593310E-1,1.076193619E1,1.668758631E0
4.043286607E0,-1.675941199E-1,1.079306126E1,1.419761658E0
4.045300736E0,-1.460463107E-1,1.081460953E1,1.300051570E0
4.047284346E0,-1.029506698E-1,1.085770512E1,1.051054597E0
4.049298474E0,-4.070143029E-2,1.091995430E1,7.661445141E-1
4.051282085E0,3.351882473E-2,1.092474270E1,5.147533417E-1
4.053296213E0,9.337386489E-2,1.093431950E1,3.950432837E-1
4.055279824E0,1.987187415E-1,1.095107841E1,1.604115069E-1
4.057293952E0,2.729389966E-1,1.092234802E1,-6.224924326E-2
4.059277562E0,3.208230138E-1,1.091037750E1,-1.508347094E-1
4.061291691E0,3.878606856E-1,1.088164711E1,-3.208230138E-1
4.063275301E0,4.357447028E-1,1.083855152E1,-4.141969085E-1
4.065289429E0,4.644751251E-1,1.082658005E1,-4.644751251E-1
4.067273040E0,5.267243981E-1,1.076433086E1,-5.291185975E-1
4.069287168E0,5.650315881E-1,1.071165848E1,-5.434837937E-1
4.071270779E0,5.913678408E-1,1.069489861E1,-5.434837937E-1
4.073284907E0,5.817909837E-1,1.063025570E1,-5.051765442E-1
4.075268517E0,5.626373887E-1,1.058476543E1,-4.237737060E-1
4.077282646E0,5.434837937E-1,1.056321812E1,-3.758896589E-1
4.079266256E0,5.123591423E-1,1.047223854E1,-2.466027737E-1
4.081280384E0,4.596867263E-1,1.039322948E1,-6.943184882E-2
4.083263995E0,4.429273009E-1,1.031900978E1,1.915361360E-2
4.085278123E0,4.261679053E-1,1.027830791E1,2.226607651E-1
4.087261734E0,4.046200812E-1,1.019451046E1,3.974374831E-1
4.089275862E0,3.711012602E-1,1.011310768E1,5.793967843E-1
4.091289990E0,3.423708379E-1,1.007719517E1,6.607996821E-1
4.093273600E0,3.184288144E-1,9.969455719E0,8.116343617E-1
4.095287729E0,2.801215947E-1,9.880870819E0,9.409212470E-1
4.097271339E0,2.561795712E-1,9.828198433E0,1.003170490E0
4.099254950E0,2.035071403E-1,9.727641106E0,1.125274777E0
4.101269078E0,1.460463107E-1,9.624691010E0,1.271321058E0
4.103283206E0,1.268926859E-1,9.579200745E0,1.326387763E0
4.105266817E0,7.422025502E-2,9.497797966E0,1.453280449E0
4.107280945E0,4.548983276E-2,9.445125580E0,1.611297727E0
4.109264555E0,3.830722719E-2,9.418789864E0,1.680729628E0
4.111278684E0,3.591302410E-2,9.361329079E0,1.810016513E0
4.113262294E0,2.873042040E-2,9.306262016E0,1.929726601E0
4.115276422E0,1.915361360E-2,9.272743225E0,1.987187386E0
4.117260033E0,-7.182605099E-3,9.210494041E0,2.063801765E0
4.119274161E0,-2.873042040E-2,9.167398453E0,2.092532396E0
4.121257772E0,-3.830722719E-2,9.121908188E0,2.106897593E0
4.123271900E0,-3.830722719E-2,9.109937668E0,2.094926596E0
4.125255510E0,-4.070143029E-2,9.078812599E0,2.073378563E0
4.127269638E0,-2.873042040E-2,9.062053680E0,2.027888775E0
4.129253249E0,-2.154781483E-2,9.047688484E0,2.008735180E0
4.131267377E0,7.182605099E-3,8.992621422E0,1.958456993E0
4.133250988E0,3.112462163E-2,8.939949036E0,1.896207690E0
4.135265116E0,3.830722719E-2,8.925583839E0,1.872265697E0
4.137248727E0,3.830722719E-2,8.880094528E0,1.821987510E0
4.139262855E0,2.394201607E-2,8.791508675E0,1.774103403E0
4.141246465E0,1.197100803E-2,8.769960403E0,1.757344007E0
4.143260593E0,1.197100803E-2,8.681375504E0,1.738190413E0
4.145244204E0,9.576806799E-3,8.623914719E0,1.714248419E0
4.147258332E0,7.182605099E-3,8.590395927E0,1.716642618E0
4.149241943E0,7.182605099E-3,8.520963669E0,1.707065821E0
4.151256071E0,1.675941236E-2,8.470685959E0,1.714248419E0
4.153239681E0,3.112462163E-2,8.456320763E0,1.719036818E0
4.155253810E0,1.915361360E-2,8.386888504E0,1.738190413E0
4.157237420E0,7.182605099E-3,8.315062523E0,1.754949808E0
4.159251548E0,-5.267243832E-2,8.250418663E0,1.776497602E0
4.161235159E0,-9.816227108E-2,8.224082947E0,1.788468719E0
4.163249287E0,-1.484405100E-1,8.157045364E0,1.838746905E0
4.165232898E0,-2.106897533E-1,8.116343498E0,1.900996208E0
4.167247026E0,-2.370259613E-1,8.104372978E0,1.939303398E0
4.169230636E0,-2.729389966E-1,8.063671112E0,2.018311977E0
4.171244765E0,-2.920926213E-1,8.061277390E0,2.092532396E0
4.173228375E0,-2.920926213E-1,8.051700592E0,2.126051188E0
4.175242503E0,-2.777273953E-1,8.056488991E0,2.202665567E0
4.177226114E0,-2.849099934E-1,8.070854187E0,2.257732153E0
4.179240242E0,-2.777273953E-1,8.078036308E0,2.260126352E0
4.181223853E0,-2.442085743E-1,8.090007782E0,2.229001760E0
