"Time (s)","Gyroscope x (rad/s)","Gyroscope y (rad/s)","Gyroscope z (rad/s)"
1.289457100E-2,-9.126327038E-1,-4.098905921E-1,4.050036669E-1
1.487818200E-2,-9.535606503E-1,-4.331034720E-1,4.227187634E-1
1.686179300E-2,-9.938777685E-1,-4.605923891E-1,4.367686510E-1
1.887592100E-2,-1.012814522E0,-4.721988440E-1,4.434881806E-1
2.089004800E-2,-1.045801282E0,-4.996877611E-1,4.575380683E-1
2.287366000E-2,-1.078177214E0,-5.259549618E-1,4.697553813E-1
2.488778700E-2,-1.092227101E0,-5.369505286E-1,4.734205604E-1
2.687139800E-2,-1.119716048E0,-5.595525503E-1,4.825835526E-1
2.888552600E-2,-1.142318010E0,-5.815436840E-1,4.899139404E-1
3.089965400E-2,-1.155146122E0,-5.919284225E-1,4.923573732E-1
3.288326500E-2,-1.175304770E0,-6.114761233E-1,4.954117239E-1
3.486687600E-2,-1.188743711E0,-6.346889734E-1,5.009095073E-1
3.688100400E-2,-1.195463300E0,-6.444628239E-1,5.021312237E-1
3.886461500E-2,-1.203404546E0,-6.688974500E-1,5.131267905E-1
4.087874300E-2,-1.203404546E0,-6.951646209E-1,5.302310586E-1
4.286235300E-2,-1.200350165E0,-7.257078886E-1,5.485569835E-1
4.487648100E-2,-1.199128509E0,-7.391469479E-1,5.589417219E-1
4.686009200E-2,-1.191187263E0,-7.745771408E-1,5.845980644E-1
4.887422000E-2,-1.179580808E0,-8.100073338E-1,6.175847650E-1
5.088834700E-2,-1.174693823E0,-8.319984674E-1,6.334672570E-1
5.287195900E-2,-1.161254883E0,-8.759807348E-1,6.670648456E-1
5.485556900E-2,-1.147204876E0,-9.224064946E-1,7.037167549E-1
5.686969800E-2,-1.144761443E0,-9.450085163E-1,7.226535678E-1
5.885330800E-2,-1.127657294E0,-9.889908433E-1,7.556403279E-1
6.086743600E-2,-1.115439892E0,-1.028086185E0,7.874053121E-1
6.285104700E-2,-1.108109593E0,-1.047023058E0,8.045095205E-1
6.486517500E-2,-1.096503139E0,-1.086118460E0,8.381071091E-1
6.684878600E-2,-1.084896684E0,-1.123992085E0,8.668177724E-1
6.886291400E-2,-1.076955438E0,-1.144761443E0,8.802568316E-1
7.087704100E-2,-1.068403363E0,-1.189965487E0,9.138544202E-1
7.286065300E-2,-1.056185961E0,-1.239445567E0,9.425650835E-1
7.484426300E-2,-1.052520871E0,-1.270599723E0,9.596692920E-1
7.685839100E-2,-1.041525245E0,-1.333518863E0,9.944885969E-1
7.884200200E-2,-1.029307961E0,-1.404379249E0,1.032362223E0
8.085613000E-2,-1.017701507E0,-1.486235142E0,1.075733662E0
8.283974100E-2,-1.008538485E0,-1.526552200E0,1.100779176E0
8.485386900E-2,-9.950994849E-1,-1.619403720E0,1.150259256E0
8.683747900E-2,-9.798278809E-1,-1.714087844E0,1.204015374E0
8.885160700E-2,-9.712757468E-1,-1.764178872E0,1.232726097E0
9.086573600E-2,-9.584475756E-1,-1.865582466E0,1.296866894E0
9.284934600E-2,-9.431759119E-1,-1.971262097E0,1.365894675E0
9.486347400E-2,-9.376781583E-1,-2.023796558E0,1.404990077E0
9.684708500E-2,-9.248499870E-1,-2.129476309E0,1.482569933E0
9.886121300E-2,-9.138544202E-1,-2.233323336E0,1.567480206E0
1.008753400E-1,-9.114109278E-1,-2.285857677E0,1.614516854E0
1.028589520E-1,-9.034696817E-1,-2.381763697E0,1.706146598E0
1.048425620E-1,-8.973610401E-1,-2.467895508E0,1.798998117E0
1.068566910E-1,-8.991936445E-1,-2.510045290E0,1.846645594E0
1.088403010E-1,-9.022479653E-1,-2.582127333E0,1.940718889E0
1.108544290E-1,-9.077457786E-1,-2.641992092E0,2.028072596E0
1.128380400E-1,-9.181304574E-1,-2.688417912E0,2.113593817E0
1.148521680E-1,-9.248499870E-1,-2.709798336E0,2.152078152E0
1.168357790E-1,-9.456194043E-1,-2.731789351E0,2.224160433E0
1.188499070E-1,-9.694431424E-1,-2.740952253E0,2.287079573E0
1.208335170E-1,-9.810495973E-1,-2.739730597E0,2.312735796E0
1.228476460E-1,-1.012203693E0,-2.728734970E0,2.360994101E0
1.248312560E-1,-1.049466491E0,-2.704300404E0,2.398867846E0
1.268453840E-1,-1.067181587E0,-2.692693949E0,2.414750338E0
1.288289950E-1,-1.107498646E0,-2.662150621E0,2.442239285E0
1.308736400E-1,-1.149037480E0,-2.624887943E0,2.454456568E0
1.328267340E-1,-1.169196129E0,-2.593122959E0,2.453845739E0
1.348408620E-1,-1.226617455E0,-2.486832380E0,2.459954262E0
1.368244720E-1,-1.282206178E0,-2.369546175E0,2.450180531E0
1.388386000E-1,-1.304808140E0,-2.306627274E0,2.445293665E0
1.408527280E-1,-1.348179579E0,-2.202169180E0,2.437963247E0
1.428363390E-1,-1.384220600E0,-2.117259026E0,2.436741352E0
1.448199500E-1,-1.400714040E0,-2.081828833E0,2.436130524E0
1.468340780E-1,-1.433700681E0,-2.028683424E0,2.436130524E0
1.488482050E-1,-1.462411404E0,-1.995696783E0,2.434298038E0
1.508623330E-1,-1.488678575E0,-1.970651269E0,2.423302412E0
1.528154270E-1,-1.500895858E0,-1.955379605E0,2.418415546E0
1.548295550E-1,-1.519832730E0,-1.924225569E0,2.397646189E0
1.568131660E-1,-1.530828357E0,-1.880243182E0,2.373822451E0
1.588272940E-1,-1.536936998E0,-1.849089146E0,2.359161615E0
1.608414220E-1,-1.540602207E0,-1.782504797E0,2.323120594E0
1.628250330E-1,-1.538158655E0,-1.692707539E0,2.277916431E0
1.648391610E-1,-1.530828357E0,-1.638951421E0,2.252260208E0
1.668227720E-1,-1.518000126E0,-1.522887111E0,2.196060658E0
1.688369000E-1,-1.494787216E0,-1.386664152E0,2.134363174E0
1.708510270E-1,-1.482569933E0,-1.317636371E0,2.100765467E0
1.728346380E-1,-1.445918083E0,-1.161254883E0,2.031737804E0
1.748182490E-1,-1.400714040E0,-9.950994849E-1,1.964542627E0
1.768323770E-1,-1.372614264E0,-9.040805697E-1,1.930945039E0
1.788159880E-1,-1.320079803E0,-7.263187766E-1,1.868025899E0
1.808301160E-1,-1.262047648E0,-5.393940210E-1,1.817324162E0
1.828137270E-1,-1.200350165E0,-3.439171314E-1,1.769065738E0
1.848278550E-1,-1.167974353E0,-2.400700450E-1,1.748907208E0
1.868114650E-1,-1.104444385E0,-2.076941915E-2,1.712866187E0
1.888255930E-1,-1.042747021E0,2.180788964E-1,1.678046823E0
1.908397210E-1,-1.009760261E0,3.402519524E-1,1.658499122E0
1.928233320E-1,-9.486737251E-1,5.925393105E-1,1.626734138E0
1.948069430E-1,-8.943067193E-1,8.484918475E-1,1.599856019E0
1.968210710E-1,-8.704829812E-1,9.737191796E-1,1.585195303E0
1.988046810E-1,-8.356636763E-1,1.221730471E0,1.562593341E0
2.008188100E-1,-8.057312369E-1,1.461800575E0,1.539991260E0
2.028329370E-1,-7.941248417E-1,1.582751870E0,1.527163148E0
2.048165480E-1,-7.855727077E-1,1.822211027E0,1.494787216E0
2.068306760E-1,-7.843509912E-1,2.065946341E0,1.459357023E0
2.088142870E-1,-7.861835957E-1,2.189341068E0,1.440420270E0
2.108284140E-1,-7.959573865E-1,2.433076382E0,1.402546644E0
2.128120260E-1,-8.087855577E-1,2.681698322E0,1.366505504E0
2.148261540E-1,-8.191702962E-1,2.804482222E0,1.345125318E0
2.168097650E-1,-8.374962807E-1,3.049439192E0,1.298088670E0
2.188238930E-1,-8.533787727E-1,3.282178879E0,1.243110776E0
2.208380200E-1,-8.723155856E-1,3.516140461E0,1.186911225E0
2.228216310E-1,-8.863654733E-1,3.630983114E0,1.158200502E0
2.248052420E-1,-9.089674950E-1,3.860668421E0,1.099557400E0
2.268193700E-1,-9.419541955E-1,4.041484356E0,1.047023058E0
2.288029810E-1,-9.859365225E-1,4.046371460E0,1.028697014E0
2.308476250E-1,-1.034805775E0,4.133725166E0,9.773843884E-1
2.328007190E-1,-1.034805775E0,4.234518051E0,9.266825914E-1
2.348148480E-1,-1.026253581E0,4.298658848E0,8.985827565E-1
2.367984580E-1,-1.006705880E0,4.445877075E0,8.429940343E-1
2.388125860E-1,-9.932668805E-1,4.571715355E0,7.984008789E-1
2.407961970E-1,-9.834930301E-1,4.634023666E0,7.751879692E-1
2.428103250E-1,-9.651671052E-1,4.756807804E0,7.434229851E-1
2.447939360E-1,-9.450085163E-1,4.882035255E0,7.318165898E-1
2.468080640E-1,-9.370672703E-1,4.944954395E0,7.330383062E-1
2.487916740E-1,-9.248499870E-1,5.059185982E0,7.507534027E-1
2.508363190E-1,-9.089674950E-1,5.178304672E0,7.849618196E-1
2.527894130E-1,-9.022479653E-1,5.234504223E0,8.051204085E-1
2.548035410E-1,-8.894197941E-1,5.339572906E0,8.582656980E-1
2.568176680E-1,-8.717046976E-1,5.418374538E0,9.181304574E-1
2.588012800E-1,-8.570439219E-1,5.464800358E0,9.828822017E-1
2.608154070E-1,-8.491026759E-1,5.482515812E0,1.018923283E0
2.627990190E-1,-8.332201838E-1,5.510615349E0,1.093448758E0
2.648131460E-1,-8.240572214E-1,5.524054527E0,1.172861218E0
2.667967580E-1,-8.252789378E-1,5.531995773E0,1.212567568E0
2.688108850E-1,-8.319984674E-1,5.547878265E0,1.298699498E0
2.708250130E-1,-8.533787727E-1,5.560095310E0,1.387274981E0
2.728086240E-1,-8.668177724E-1,5.569258213E0,1.433700681E0
2.747922350E-1,-9.059131742E-1,5.582086563E0,1.528384805E0
2.768063630E-1,-9.492846131E-1,5.583919048E0,1.623679876E0
2.787899740E-1,-9.712757468E-1,5.572312832E0,1.670105577E0
2.808041020E-1,-1.004873276E0,5.516113281E0,1.764789701E0
2.827877120E-1,-1.023199320E0,5.401881218E0,1.861917257E0
2.848018410E-1,-1.028086185E0,5.325523376E0,1.903456092E0
2.867854510E-1,-1.022588372E0,5.151426792E0,1.945605755E0
2.887995790E-1,-9.896016717E-1,4.900971889E0,1.960877419E0
2.908137070E-1,-9.211847782E-1,4.575991631E0,1.934610248E0
2.927973180E-1,-8.765916228E-1,4.391510010E0,1.904677868E0
2.947809290E-1,-7.599163651E-1,3.992004395E0,1.809382915E0
2.967950570E-1,-6.249151230E-1,3.578448534E0,1.688431501E0
2.987786670E-1,-5.583308339E-1,3.373197794E0,1.626123309E0
3.007927960E-1,-4.331034720E-1,2.995683193E0,1.520443559E0
3.027764060E-1,-3.341432810E-1,2.687807083E0,1.463633180E0
3.047905340E-1,-2.981022298E-1,2.558914423E0,1.437365890E0
3.067741450E-1,-2.449569702E-1,2.341446400E0,1.399492264E0
3.087882730E-1,-2.168571651E-1,2.157576084E0,1.368338108E0
3.108024000E-1,-2.083050460E-1,2.072054863E0,1.350623012E0
3.127860120E-1,-2.040289938E-1,1.915062547E0,1.315803766E0
3.147696220E-1,-2.089159191E-1,1.736689925E0,1.294423461E0
3.167837500E-1,-2.180788964E-1,1.648725271E0,1.285260439E0
3.187673610E-1,-2.474004179E-1,1.489289522E0,1.269377947E0
3.207814890E-1,-2.858849466E-1,1.347568750E0,1.251662850E0
3.227651000E-1,-3.072652221E-1,1.284649611E0,1.243721604E0
3.247792280E-1,-3.549126983E-1,1.165530920E0,1.222341299E0
3.267628390E-1,-4.129449129E-1,1.055575132E0,1.197295904E0
3.287769670E-1,-4.758640230E-1,9.376781583E-1,1.167974353E0
3.307910940E-1,-5.076290369E-1,8.747590184E-1,1.152091861E0
3.327747050E-1,-5.821545720E-1,7.391469479E-1,1.114218235E0
3.347583160E-1,-6.554583907E-1,5.925393105E-1,1.069014192E0
3.367724440E-1,-6.927211881E-1,5.119050741E-1,1.044579625E0
3.387560550E-1,-7.696902156E-1,3.353650272E-1,9.902125597E-1
3.407701830E-1,-8.393288255E-1,1.386664063E-1,9.327912331E-1
3.427537930E-1,-8.772025108E-1,3.176499158E-2,9.040805697E-1
3.447679220E-1,-9.450085163E-1,-1.985312104E-1,8.454375267E-1
3.467515320E-1,-1.013425469E0,-4.416555762E-1,7.880161405E-1
3.487656600E-1,-1.048855662E0,-5.687155724E-1,7.568620443E-1
3.507797890E-1,-1.124602914E0,-8.252789378E-1,7.031059265E-1
3.527633990E-1,-1.207069755E0,-1.082453251E0,6.505714655E-1
3.547470100E-1,-1.252884626E0,-1.210124016E0,6.249151230E-1
3.567611380E-1,-1.354288220E0,-1.464244008E0,5.827654600E-1
3.587447480E-1,-1.464244008E0,-1.706757545E0,5.467243791E-1
3.607588770E-1,-1.525330544E0,-1.824043632E0,5.296201706E-1
3.627424870E-1,-1.656055689E0,-2.029905319E0,5.076290369E-1
3.647566150E-1,-1.797165513E0,-2.203390837E0,4.972442985E-1
3.667402260E-1,-1.951103568E0,-2.344500780E0,4.978551865E-1
3.687543540E-1,-2.031737804E0,-2.398257017E0,5.015203953E-1
3.707684820E-1,-2.203390837E0,-2.488665104E0,5.125159621E-1
3.727520930E-1,-2.387261391E0,-2.538755894E0,5.265658498E-1
3.747357030E-1,-2.480723858E0,-2.557081938E0,5.326744914E-1
3.767498320E-1,-2.660318136E0,-2.598009825E0,5.448917747E-1
3.787334420E-1,-2.833803892E0,-2.662761688E0,5.632177591E-1
3.807780870E-1,-2.915048838E0,-2.711630821E0,5.754350424E-1
3.827311810E-1,-3.067765236E0,-2.825251818E0,6.096435189E-1
3.847453090E-1,-3.210707664E0,-2.933374882E0,6.579018831E-1
3.867289200E-1,-3.278513670E0,-2.974913836E0,6.853908300E-1
3.887735640E-1,-3.395799875E0,-3.005456924E0,7.489207983E-1
3.907571760E-1,-3.480710268E0,-2.925433636E0,8.038986921E-1
3.927407860E-1,-3.518583775E0,-2.835636377E0,8.277224302E-1
3.947243970E-1,-3.547294378E0,-2.584570885E0,8.637634516E-1
3.967385250E-1,-3.516140461E0,-2.246151447E0,8.802568316E-1
3.987526530E-1,-3.419012785E0,-1.819156647E0,8.698720932E-1
4.007362640E-1,-3.348763227E0,-1.579697490E0,8.576548100E-1
4.027503920E-1,-3.178942680E0,-1.065348983E0,8.155050874E-1
4.047340030E-1,-2.979800701E0,-5.497786999E-1,7.678576112E-1
4.067481310E-1,-2.873510122E0,-3.072652221E-1,7.397578359E-1
4.087317410E-1,-2.663983345E0,1.209513173E-1,6.896668673E-1
4.107458700E-1,-2.456900120E0,4.514294267E-1,6.505714655E-1
4.127294800E-1,-2.357939959E0,5.784893632E-1,6.334672570E-1
4.147436080E-1,-2.169793367E0,7.544185519E-1,6.004805565E-1
4.167272190E-1,-2.007914066E0,8.472700715E-1,5.772676468E-1
4.187413470E-1,-1.937053680E0,8.936958313E-1,5.705481172E-1
4.207554750E-1,-1.828930497E0,9.590584636E-1,5.607742667E-1
4.227390860E-1,-1.729970336E0,9.663888216E-1,5.577199459E-1
4.247226960E-1,-1.683544636E0,9.639453292E-1,5.571091175E-1
4.267368240E-1,-1.583362699E0,9.541715384E-1,5.571091175E-1
4.287204350E-1,-1.489289522E0,9.077457786E-1,5.497786999E-1
4.307345630E-1,-1.442252874E0,8.710938692E-1,5.436700583E-1
4.327181740E-1,-1.341460109E0,7.666358948E-1,5.192354321E-1
4.347323020E-1,-1.237002134E0,6.267477274E-1,4.941899776E-1
4.367159130E-1,-1.130711555E0,4.502076805E-1,4.654793143E-1
4.387300410E-1,-1.078177214E0,3.567453027E-1,4.550946057E-1
4.407136510E-1,-9.712757468E-1,1.514945775E-1,4.324925840E-1
4.427277790E-1,-8.710938692E-1,-7.024950534E-2,4.153883755E-1
4.447113900E-1,-8.228355050E-1,-1.704314053E-1,4.086688459E-1
4.467255180E-1,-7.360926270E-1,-3.439171314E-1,3.927863538E-1
4.487091290E-1,-6.536257863E-1,-4.648684561E-1,3.769038618E-1
4.507232570E-1,-6.169738770E-1,-5.076290369E-1,3.732386529E-1
4.527068670E-1,-5.485569835E-1,-5.595525503E-1,3.677408695E-1
4.547209960E-1,-4.960225821E-1,-5.833762884E-1,3.689626157E-1
4.567046060E-1,-4.709770977E-1,-5.833762884E-1,3.744603992E-1
4.587187340E-1,-4.386012554E-1,-5.815436840E-1,3.952298164E-1
4.607328630E-1,-4.282165468E-1,-5.742133260E-1,4.257730842E-1
4.626859570E-1,-4.276056588E-1,-5.754350424E-1,4.477642179E-1
4.647000840E-1,-4.410447180E-1,-5.858197808E-1,4.990769029E-1
4.666836950E-1,-4.728097022E-1,-6.133087277E-1,5.693264008E-1
4.686978220E-1,-4.948008358E-1,-6.316346526E-1,6.059783101E-1
4.707119510E-1,-5.497786999E-1,-6.627888083E-1,6.591235995E-1
4.726955610E-1,-6.114761233E-1,-6.914994717E-1,7.153232098E-1
4.747096890E-1,-6.780604124E-1,-7.049384713E-1,7.690793276E-1
4.766933000E-1,-7.128797174E-1,-7.104362845E-1,7.910705209E-1
4.787074280E-1,-7.703011036E-1,-7.141014934E-1,8.338310719E-1
4.806910390E-1,-8.210029006E-1,-7.104362845E-1,8.710938692E-1
4.827051670E-1,-8.436049223E-1,-7.079927921E-1,8.820894361E-1
4.846887770E-1,-8.839219809E-1,-6.969972253E-1,9.059131742E-1
4.867029050E-1,-9.126327038E-1,-6.811147332E-1,9.193521738E-1
4.886865160E-1,-9.205739498E-1,-6.719517708E-1,9.254608750E-1
4.907006440E-1,-9.315695167E-1,-6.462954283E-1,9.266825914E-1
4.926842550E-1,-9.340129495E-1,-6.102544069E-1,9.230173826E-1
4.946983830E-1,-9.309586287E-1,-5.852088928E-1,9.187413454E-1
4.966819940E-1,-9.230173826E-1,-5.283984542E-1,9.022479653E-1
4.986961220E-1,-9.095783234E-1,-4.612032473E-1,8.833111525E-1
5.007102500E-1,-9.010262489E-1,-4.227187634E-1,8.710938692E-1
5.026938600E-1,-8.827002645E-1,-3.396410644E-1,8.448266387E-1
5.046774710E-1,-8.570439219E-1,-2.382374406E-1,8.112290502E-1
5.066915990E-1,-8.271115422E-1,-1.282816976E-1,7.751879692E-1
5.086752100E-1,-8.063421249E-1,-7.696902007E-2,7.538077235E-1
5.106893380E-1,-7.507534027E-1,3.787364438E-2,7.092145681E-1
5.126729480E-1,-6.878342628E-1,1.808161139E-1,6.560692787E-1
5.146870770E-1,-6.548475623E-1,2.742784917E-1,6.291912198E-1
5.166706870E-1,-5.791002512E-1,4.856378734E-1,5.687155724E-1
5.186848150E-1,-4.917465150E-1,7.342600226E-1,4.990769029E-1
5.206684260E-1,-4.447098970E-1,8.655960560E-1,4.642575979E-1
5.226825540E-1,-3.426954150E-1,1.133765936E0,3.927863538E-1
5.246661660E-1,-2.333505303E-1,1.386053205E0,3.182607889E-1
5.266802930E-1,-1.734857261E-1,1.502728462E0,2.852740586E-1
5.286639040E-1,-5.436700583E-2,1.707368374E0,2.241875380E-1
5.306780320E-1,6.902777404E-2,1.852754235E0,1.747074574E-1
5.326616430E-1,1.331686229E-1,1.896736622E0,1.539380401E-1
5.346757700E-1,2.602286041E-1,1.907121301E0,1.258382350E-1
5.366593820E-1,3.866777122E-1,1.848478198E0,1.154535338E-1
5.386735090E-1,4.520402849E-1,1.803885102E0,1.148426682E-1
5.406876370E-1,5.858197808E-1,1.683544636E0,1.166752651E-1
5.426712480E-1,7.293730974E-1,1.550375938E0,1.270599663E-1
5.446548590E-1,8.747590184E-1,1.401935697E0,1.404990107E-1
5.466689870E-1,9.511171579E-1,1.332907915E0,1.484402567E-1
5.486525980E-1,1.111163855E0,1.207680583E0,1.685988009E-1
5.506667250E-1,1.272432327E0,1.109331250E0,1.918116808E-1
5.526503370E-1,1.351844788E0,1.067792416E0,1.960877478E-1
5.546644640E-1,1.513724089E0,1.010371089E0,2.046398520E-1
5.566480760E-1,1.671938181E0,9.822713137E-1,2.113593817E-1
5.586622030E-1,1.748907208E0,9.724974632E-1,2.101376504E-1
5.606458140E-1,1.891849637E0,9.645562172E-1,2.046398520E-1
5.626599410E-1,2.028072596E0,9.578366876E-1,1.942551434E-1
5.646435530E-1,2.089159250E0,9.462302923E-1,1.899790913E-1
5.666576800E-1,2.218662500E0,9.108000994E-1,1.795943826E-1
5.686412920E-1,2.371378899E0,8.179485798E-1,1.679879427E-1
5.706859360E-1,2.463008642E0,7.385360599E-1,1.618792862E-1
5.726390300E-1,2.703689575E0,4.770857692E-1,1.588249654E-1
5.746531580E-1,2.986520290E0,1.508837193E-1,1.600466967E-1
5.766367690E-1,3.118467093E0,1.588249579E-2,1.563815027E-1
5.786508960E-1,3.334713459E0,-1.240056455E-1,1.319468915E-1
5.806650250E-1,3.491094828E0,-1.062905490E-1,9.590584040E-2
5.826486350E-1,3.598607063E0,2.076941915E-2,5.558873713E-2
5.846322470E-1,3.642589569E0,1.044579595E-1,3.543018550E-2
5.866463750E-1,3.722002029E0,3.005456924E-1,6.108652451E-4
5.886299850E-1,3.797749281E0,4.899139404E-1,-3.359758854E-2
5.906746300E-1,3.841731548E0,5.778785348E-1,-5.192354694E-2
5.926277240E-1,3.936415672E0,7.354817390E-1,-9.285151958E-2
5.946418520E-1,4.043316841E0,8.649851680E-1,-1.398881376E-1
5.966254630E-1,4.101349354E0,9.272934198E-1,-1.655444801E-1
5.986395910E-1,4.220468044E0,1.040303469E0,-2.278527319E-1
6.006232020E-1,4.340197563E0,1.166752577E0,-2.932153046E-1
6.026373300E-1,4.392732143E0,1.232726097E0,-3.262020350E-1
6.046209400E-1,4.489248753E0,1.350012183E0,-3.946189582E-1
6.066350690E-1,4.556443691E0,1.438587666E0,-4.789183438E-1
6.086186790E-1,4.580267429E0,1.463022232E0,-5.308418870E-1
6.106633240E-1,4.610810757E0,1.486235142E0,-6.499606371E-1
6.126164180E-1,4.621806622E0,1.496619821E0,-7.666358948E-1
6.146305460E-1,4.613865376E0,1.487456918E0,-8.802568316E-1
6.166141570E-1,4.608367443E0,1.478293896E0,-9.334021211E-1
6.186282850E-1,4.588208675E0,1.479515672E0,-1.038470864E0
6.206424120E-1,4.560109138E0,1.517389297E0,-1.133765936E0
6.226260230E-1,4.546669960E0,1.555873752E0,-1.176526427E0
6.246096340E-1,4.511850834E0,1.663386106E0,-1.246775985E0
6.266237620E-1,4.480696678E0,1.815491557E0,-1.298699498E0
6.286073730E-1,4.471533775E0,1.893071413E0,-1.320690632E0
6.306520180E-1,4.469089985E0,2.051285505E0,-1.349401355E0
6.326051120E-1,4.481918335E0,2.192395449E0,-1.370781660E0
6.346192400E-1,4.488027096E0,2.251649380E0,-1.378722906E0
6.366028500E-1,4.502687931E0,2.342057467E0,-1.394605398E0
6.386169780E-1,4.507574558E0,2.404976368E0,-1.412931323E0
6.406005890E-1,4.506352901E0,2.426356792E0,-1.421483397E0
6.426147170E-1,4.501465797E0,2.455678225E0,-1.444085479E0
6.446288440E-1,4.478252888E0,2.464230299E0,-1.471574426E0
6.466124560E-1,4.464203358E0,2.459343433E0,-1.486845970E0
6.486265840E-1,4.422053337E0,2.423302412E0,-1.522276163E0
6.506407110E-1,4.356690884E0,2.348165989E0,-1.559538960E0
6.526243230E-1,4.279721737E0,2.227825642E0,-1.602299571E0
6.546079330E-1,4.233295918E0,2.149634838E0,-1.626734138E0
6.566220610E-1,4.128838062E0,1.988366365E0,-1.665829539E0
6.586056720E-1,3.997502089E0,1.833206654E0,-1.704924941E0
6.606198000E-1,3.925420046E0,1.766622305E0,-1.719585657E0
6.626034110E-1,3.756821156E0,1.653001308E0,-1.737300754E0
6.646175390E-1,3.566231251E0,1.566869378E0,-1.747074604E0
6.666011500E-1,3.464827776E0,1.530828357E0,-1.744631171E0
6.686152780E-1,3.249192238E0,1.450804949E0,-1.734857321E0
6.706294050E-1,3.025004625E0,1.364062071E0,-1.712255239E0
6.726130160E-1,2.911383867E0,1.313971162E0,-1.696983695E0
6.745966270E-1,2.688417912E0,1.206458807E0,-1.653001308E0
6.766107550E-1,2.469728231E0,1.085507512E0,-1.593136549E0
6.785943660E-1,2.364659309E0,1.018923283E0,-1.555873752E0
6.806084940E-1,2.174680233E0,8.827002645E-1,-1.472796082E0
6.825921040E-1,2.009746552E0,7.495316267E-1,-1.375668526E0
6.846062330E-1,1.940108061E0,6.798930168E-1,-1.323134065E0
6.865898430E-1,1.820989251E0,5.381723046E-1,-1.224784851E0
6.886039710E-1,1.733635545E0,4.111123085E-1,-1.137431145E0
6.906180990E-1,1.679268599E0,3.072652221E-1,-1.064738154E0
6.926017100E-1,1.664607763E0,2.736676335E-1,-1.036638379E0
6.945853210E-1,1.650557876E0,2.461786866E-1,-9.963212013E-1
6.965994490E-1,1.659720898E0,2.724458873E-1,-9.731083512E-1
6.985830590E-1,1.668883801E0,3.029891551E-1,-9.694431424E-1
7.006277040E-1,1.701870561E0,3.891211748E-1,-9.688322544E-1
7.025807980E-1,1.739744186E0,5.174028873E-1,-9.786061049E-1
7.045949260E-1,1.768454909E0,5.968153477E-1,-9.786061049E-1
7.065785370E-1,1.824043632E0,7.672467232E-1,-9.914342761E-1
7.085926650E-1,1.884519339E0,9.480628371E-1,-1.011592865E0
7.106067930E-1,1.917505980E0,1.039692640E0,-1.027475357E0
7.125904040E-1,1.980425119E0,1.211956620E0,-1.070235968E0
7.146045320E-1,2.042122602E0,1.370781660E0,-1.128878951E0
7.165881430E-1,2.071444035E0,1.444696307E0,-1.160643935E0
7.186022710E-1,2.125811100E0,1.572978020E0,-1.227228284E0
7.205858810E-1,2.169182539E0,1.666440368E0,-1.298088670E0
7.226000090E-1,2.203390837E0,1.728748679E0,-1.368338108E0
7.245836200E-1,2.219273329E0,1.751350641E0,-1.403157473E0
7.265977480E-1,2.251038313E0,1.782504797E0,-1.460578799E0
7.285813590E-1,2.279749155E0,1.798998117E0,-1.508837104E0
7.305954870E-1,2.295631647E0,1.800219893E0,-1.530828357E0
7.325790970E-1,2.329229116E0,1.799609065E0,-1.568701982E0
7.345932260E-1,2.368324518E0,1.784948230E0,-1.595579982E0
7.365768360E-1,2.388483047E0,1.770898342E0,-1.608408213E0
7.385909640E-1,2.435519695E0,1.729359508E0,-1.627344966E0
7.406050910E-1,2.486832380E0,1.673159957E0,-1.631010175E0
7.425887030E-1,2.511877775E0,1.636507988E0,-1.629177570E0
7.445723140E-1,2.566244841E0,1.556484699E0,-1.610240817E0
7.465864420E-1,2.619390249E0,1.456302762E0,-1.570534587E0
7.485700520E-1,2.645046473E0,1.397048831E0,-1.545489073E0
7.505841810E-1,2.694526672E0,1.254717231E0,-1.489900351E0
7.525677910E-1,2.736065388E0,1.089783549E0,-1.426981211E0
7.545819190E-1,2.758667469E0,1.002429843E0,-1.398270488E0
7.565655300E-1,2.796540976E0,8.136724830E-1,-1.345736146E0
7.585796580E-1,2.831360340E0,6.212499738E-1,-1.301753879E0
7.605632690E-1,2.855794907E0,4.282165468E-1,-1.265712738E0
7.625773970E-1,2.866790533E0,3.378084898E-1,-1.252884626E0
7.645610070E-1,2.874731779E0,1.667662114E-1,-1.224784851E0
7.665751350E-1,2.868623257E0,2.748893574E-2,-1.199128509E0
7.685587460E-1,2.860071182E0,-3.115412779E-2,-1.185689449E0
7.705728740E-1,2.837469101E0,-1.093448773E-1,-1.153924465E0
7.725564850E-1,2.792876005E0,-1.447750628E-1,-1.129489779E0
7.745706130E-1,2.770273924E0,-1.447750628E-1,-1.120937705E0
7.765542240E-1,2.709798336E0,-1.062905490E-1,-1.104444385E0
7.785683520E-1,2.632829189E0,-2.748893574E-2,-1.089783549E0
7.805824800E-1,2.590679407E0,2.687807009E-2,-1.079398870E0
7.825660900E-1,2.497217178E0,1.521054506E-1,-1.061072946E0
7.845497010E-1,2.392759085E0,2.877175212E-1,-1.037860036E0
7.865638290E-1,2.339613914E0,3.567453027E-1,-1.019534111E0
7.885779570E-1,2.229047298E0,4.935791194E-1,-9.810495973E-1
7.905920840E-1,2.112982988E0,6.291912198E-1,-9.401215911E-1
7.925451780E-1,2.058005095E0,6.927211881E-1,-9.211847782E-1
7.945593070E-1,1.955990553E0,8.106181622E-1,-8.845328689E-1
7.965429170E-1,1.857641220E0,9.187413454E-1,-8.503243923E-1
7.985570450E-1,1.773952723E0,1.004873276E0,-8.234463334E-1
8.005406560E-1,1.736078978E0,1.041525245E0,-8.112290502E-1
8.025547840E-1,1.670105577E0,1.102611780E0,-7.892379165E-1
8.045383950E-1,1.610851645E0,1.137431145E0,-7.709119320E-1
8.065525230E-1,1.584584475E0,1.141707182E0,-7.641924024E-1
8.085361330E-1,1.535715222E0,1.125213742E0,-7.519751191E-1
8.105807780E-1,1.496008992E0,1.087950945E0,-7.397578359E-1
8.125338720E-1,1.482569933E0,1.058629513E0,-7.348709106E-1
8.145480000E-1,1.459967971E0,9.926560521E-1,-7.171558142E-1
8.165316110E-1,1.452026725E0,9.065240026E-1,-6.927211881E-1
8.185457390E-1,1.450804949E0,8.521569967E-1,-6.786713004E-1
8.205598670E-1,1.452026725E0,7.244861722E-1,-6.432411075E-1
8.225434780E-1,1.455080986E0,5.558874011E-1,-6.035348773E-1
8.245270880E-1,1.461189628E0,4.587597847E-1,-5.839871764E-1
8.265412160E-1,1.470352650E0,2.388483137E-1,-5.455026627E-1
8.285248270E-1,1.487456918E0,1.221730490E-3,-5.051855445E-1
8.305694730E-1,1.499674201E0,-2.455678284E-1,-4.801400900E-1
8.325225660E-1,1.507004619E0,-3.665191531E-1,-4.734205604E-1
8.345366940E-1,1.525941372E0,-5.925393105E-1,-4.679227769E-1
8.365508220E-1,1.541213036E0,-7.837401032E-1,-4.709770977E-1
8.385344330E-1,1.548543453E0,-8.698720932E-1,-4.746423066E-1
8.405485610E-1,1.556484699E0,-1.024420977E0,-4.899139404E-1
8.425321710E-1,1.558928132E0,-1.155146122E0,-5.064072609E-1
8.445463000E-1,1.554041147E0,-1.216232657E0,-5.198463202E-1
8.465299100E-1,1.535715222E0,-1.329853654E0,-5.540547967E-1
8.485440380E-1,1.503950238E0,-1.426981211E0,-5.937610269E-1
8.505581660E-1,1.478293896E0,-1.470963478E0,-6.151412725E-1
8.525417770E-1,1.423316002E0,-1.536936998E0,-6.554583907E-1
8.545253880E-1,1.357342601E0,-1.583362699E0,-7.037167549E-1
8.565395160E-1,1.321912408E0,-1.602910399E0,-7.250970602E-1
8.585231260E-1,1.249219418E0,-1.625512362E0,-7.678576112E-1
8.605372550E-1,1.164309144E0,-1.637729764E0,-8.051204085E-1
8.625208650E-1,1.120326877E0,-1.640784025E0,-8.216137290E-1
8.645349930E-1,1.027475357E0,-1.645060062E0,-8.466592431E-1
8.665186040E-1,9.297369123E-1,-1.637729764E0,-8.674286604E-1
8.685327320E-1,8.301658630E-1,-1.629788518E0,-8.845328689E-1
8.705468600E-1,7.776314616E-1,-1.623068929E0,-8.906415105E-1
8.725304710E-1,6.774495840E-1,-1.598634362E0,-9.040805697E-1
8.745140810E-1,5.778785348E-1,-1.558317184E0,-9.144652486E-1
8.765282090E-1,5.271766782E-1,-1.536326051E0,-9.205739498E-1
8.785118200E-1,4.367686510E-1,-1.486845970E0,-9.327912331E-1
8.805259480E-1,3.536909819E-1,-1.423316002E0,-9.425650835E-1
8.825095590E-1,3.139847219E-1,-1.392772794E0,-9.474520087E-1
8.845236870E-1,2.461786866E-1,-1.318247199E0,-9.578366876E-1
8.865072980E-1,1.966986060E-1,-1.236391306E0,-9.651671052E-1
8.885214260E-1,1.789835095E-1,-1.191187263E0,-9.663888216E-1
8.905355540E-1,1.490511149E-1,-1.096503139E0,-9.731083512E-1
8.925191640E-1,1.441642046E-1,-1.003651619E0,-9.804387093E-1
8.945027750E-1,1.453859210E-1,-9.553932548E-1,-9.810495973E-1
8.965169030E-1,1.661553532E-1,-8.741481900E-1,-9.902125597E-1
8.985005140E-1,1.991420686E-1,-7.984008789E-1,-9.969320893E-1
9.005451590E-1,2.492330223E-1,-7.293730974E-1,-9.993755221E-1
9.025287700E-1,2.748893499E-1,-7.012733221E-1,-1.001819015E0
9.045123810E-1,3.335324228E-1,-6.450737119E-1,-9.999864101E-1
9.065265090E-1,3.970624208E-1,-5.949827433E-1,-9.920451641E-1
9.085101190E-1,4.300491214E-1,-5.699372888E-1,-9.859365225E-1
9.105242470E-1,4.917465150E-1,-5.326744914E-1,-9.792169929E-1
9.125078580E-1,5.485569835E-1,-5.064072609E-1,-9.743300676E-1
9.145219860E-1,5.760459304E-1,-4.990769029E-1,-9.724974632E-1
9.165055970E-1,6.298020482E-1,-4.941899776E-1,-9.700540304E-1
9.185197250E-1,6.798930168E-1,-5.009095073E-1,-9.749409556E-1
9.205033360E-1,7.037167549E-1,-5.082398653E-1,-9.786061049E-1
9.225174640E-1,7.476990819E-1,-5.332853794E-1,-9.877691269E-1
9.245010740E-1,7.800748944E-1,-5.699372888E-1,-9.957103729E-1
9.265152020E-1,7.892379165E-1,-5.919284225E-1,-1.006095052E0
9.284988130E-1,8.051204085E-1,-6.352998614E-1,-1.028697014E0
9.305434580E-1,8.106181622E-1,-6.853908300E-1,-1.051909924E0
9.324965520E-1,8.118399382E-1,-7.073819637E-1,-1.060462117E0
9.345106800E-1,8.026769161E-1,-7.452555895E-1,-1.070235968E0
9.364942900E-1,7.861835957E-1,-7.605272532E-1,-1.066570759E0
9.385084190E-1,7.586946487E-1,-7.385360599E-1,-1.049466491E0
9.405225470E-1,7.403686643E-1,-7.318165898E-1,-1.045801282E0
9.425061570E-1,6.994407177E-1,-7.012733221E-1,-1.032362223E0
9.444897680E-1,6.499606371E-1,-6.713408828E-1,-1.014036298E0
9.465038960E-1,6.255260110E-1,-6.530149579E-1,-9.963212013E-1
9.484875070E-1,5.723807216E-1,-6.169738770E-1,-9.615018964E-1
9.505321520E-1,5.149593949E-1,-5.839871764E-1,-9.156870246E-1
9.524852450E-1,4.844161272E-1,-5.729916096E-1,-8.936958313E-1
9.544993740E-1,4.440990388E-1,-5.931501389E-1,-8.448266387E-1
9.564829840E-1,4.276056588E-1,-7.513642311E-1,-8.051204085E-1
9.584971120E-1,4.037819207E-1,-7.648032904E-1,-7.721336484E-1
9.604807230E-1,3.133738637E-1,-7.434229851E-1,-7.055493593E-1
9.624948510E-1,2.345722616E-1,-7.385360599E-1,-6.420193911E-1
9.644784620E-1,2.138028294E-1,-7.330383062E-1,-6.108652353E-1
9.664925900E-1,1.789835095E-1,-7.226535678E-1,-5.461135507E-1
9.684762000E-1,1.508837193E-1,-7.037167549E-1,-4.813618064E-1
9.705208460E-1,1.166752651E-1,-6.811147332E-1,-4.178318381E-1
9.724739390E-1,9.712757170E-2,-6.664539576E-1,-3.909537494E-1
9.744880670E-1,6.780604273E-2,-6.444628239E-1,-3.310889602E-1
9.765021950E-1,3.420845419E-2,-6.304129362E-1,-2.809980214E-1
9.784858060E-1,1.710422710E-2,-6.212499738E-1,-2.577851415E-1
9.804999340E-1,-1.038470957E-2,-6.145304441E-1,-2.168571651E-1
9.824835450E-1,-4.153883830E-2,-6.133087277E-1,-1.875356287E-1
9.844976730E-1,-5.681046844E-2,-6.163630486E-1,-1.771509200E-1
9.864812830E-1,-8.185594529E-2,-6.261368990E-1,-1.661553532E-1
9.884954120E-1,-1.014036313E-1,-6.426302195E-1,-1.649336219E-1
9.905095400E-1,-1.081231460E-1,-6.511823535E-1,-1.685988009E-1
9.924931500E-1,-1.197295859E-1,-6.750060916E-1,-1.899790913E-1
9.944767610E-1,-1.258382350E-1,-7.049384713E-1,-2.223549485E-1
9.964908890E-1,-1.270599663E-1,-7.232644558E-1,-2.406809032E-1
9.984745000E-1,-1.301143020E-1,-7.867944241E-1,-2.797762752E-1
1.000488628E0,-1.276708394E-1,-8.753699064E-1,-3.341432810E-1
1.002472238E0,-1.240056455E-1,-9.260717034E-1,-3.561344445E-1
1.004486367E0,-1.142318025E-1,-1.032973170E0,-4.031710625E-1
1.006469977E0,-9.285151958E-2,-1.139263630E0,-4.489859641E-1
1.008484105E0,-6.047565863E-2,-1.240667343E0,-4.886921942E-1
1.010498233E0,-4.520402849E-2,-1.288314819E0,-5.100724697E-1
1.012481844E0,6.108652451E-4,-1.378111959E0,-5.510004759E-1
1.014495972E0,5.070181563E-2,-1.443474531E0,-5.913175344E-1
1.016479583E0,7.757988572E-2,-1.469741821E0,-6.090326309E-1
1.018493711E0,1.331686229E-1,-1.518000126E0,-6.426302195E-1
1.020507839E0,1.887573600E-1,-1.563814998E0,-6.805039048E-1
1.022491450E0,2.150245607E-1,-1.583362699E0,-6.945537925E-1
1.024475060E0,2.590068579E-1,-1.618182063E0,-7.238753438E-1
1.026489188E0,2.950479090E-1,-1.649947047E0,-7.519751191E-1
1.028472799E0,3.090978265E-1,-1.658499122E0,-7.611380816E-1
1.030486927E0,3.255911767E-1,-1.682322860E0,-7.745771408E-1
1.032470538E0,3.286454976E-1,-1.691485882E0,-7.800748944E-1
1.034484666E0,3.255911767E-1,-1.690264106E0,-7.751879692E-1
1.036468276E0,3.097086847E-1,-1.669494748E0,-7.641924024E-1
1.038482405E0,2.816088796E-1,-1.623679876E0,-7.360926270E-1
1.040466015E0,2.590068579E-1,-1.594969153E0,-7.177666426E-1
1.042480143E0,2.095267773E-1,-1.507004619E0,-6.756169796E-1
1.044463754E0,1.484402567E-1,-1.400103092E0,-6.273586154E-1
1.046477882E0,7.757988572E-2,-1.268767118E0,-5.784893632E-1
1.048461493E0,3.909537569E-2,-1.197295904E0,-5.546656251E-1
1.050506137E0,-3.665191308E-2,-1.039692640E0,-5.131267905E-1
1.052459231E0,-1.117883399E-1,-8.759807348E-1,-4.709770977E-1
1.054473360E0,-1.490511149E-1,-7.904596329E-1,-4.538728893E-1
1.056456970E0,-2.144137025E-1,-6.151412725E-1,-4.074471295E-1
1.058471098E0,-2.657263875E-1,-4.453207552E-1,-3.610213697E-1
1.060485226E0,-2.883284092E-1,-3.579670191E-1,-3.384193480E-1
1.062468837E0,-3.164281845E-1,-1.869247705E-1,-2.864958048E-1
1.064482965E0,-3.237585723E-1,-2.138028294E-2,-2.309070677E-1
1.066466576E0,-3.213151097E-1,5.803219974E-2,-2.052507252E-1
1.068450186E0,-2.987131178E-1,2.058615834E-1,-1.496619880E-1
1.070494831E0,-2.577851415E-1,3.341432810E-1,-9.896016866E-2
1.072447925E0,-2.302961946E-1,3.872885704E-1,-7.696902007E-2
1.074462053E0,-1.649336219E-1,4.758640230E-1,-2.687807009E-2
1.076476181E0,-8.674286306E-2,5.369505286E-1,1.343903504E-2
1.078459792E0,-4.520402849E-2,5.534439087E-1,3.237585723E-2
1.080473920E0,5.375614017E-2,5.723807216E-1,7.024950534E-2
1.082457531E0,1.588249654E-1,5.626068711E-1,1.105666086E-1
1.084471659E0,2.663372457E-1,5.302310586E-1,1.459967941E-1
1.086455269E0,3.213151097E-1,5.009095073E-1,1.582140923E-1
1.088469398E0,4.282165468E-1,4.331034720E-1,1.673770845E-1
1.090483526E0,5.241223574E-1,3.481931984E-1,1.600466967E-1
1.092467136E0,5.699372888E-1,3.054326177E-1,1.447750628E-1
1.094450747E0,6.572909951E-1,2.107485086E-1,1.075122803E-1
1.096464875E0,7.367035151E-1,1.075122803E-1,5.436700583E-2
1.098448486E0,7.709119320E-1,5.314527452E-2,2.565634064E-2
1.100462614E0,8.362745047E-1,-6.902777404E-2,-3.359758854E-2
1.102446224E0,8.894197941E-1,-1.936442852E-1,-9.468411654E-2
1.104460352E0,9.114109278E-1,-2.620611787E-1,-1.227839142E-1
1.106443963E0,9.486737251E-1,-3.903428912E-1,-1.734857261E-1
1.108458091E0,9.767735004E-1,-5.253441334E-1,-2.150245607E-1
1.110472219E0,9.822713137E-1,-5.907067060E-1,-2.339613885E-1
1.112455830E0,9.828822017E-1,-7.134906054E-1,-2.608394623E-1
1.114439441E0,9.682214260E-1,-8.252789378E-1,-2.809980214E-1
1.116453569E0,9.340129495E-1,-9.169087410E-1,-2.883284092E-1
1.118437179E0,9.132435322E-1,-9.590584636E-1,-2.877175212E-1
1.120451307E0,8.552113175E-1,-1.025031924E0,-2.767219543E-1
1.122434918E0,7.867944241E-1,-1.072068453E0,-2.535090744E-1
1.124449046E0,7.464773059E-1,-1.085507512E0,-2.400700450E-1
1.126432657E0,6.511823535E-1,-1.091616154E0,-2.028072625E-1
1.128446785E0,5.418374538E-1,-1.072068453E0,-1.637118906E-1
1.130460913E0,4.831944108E-1,-1.053742528E0,-1.435533315E-1
1.132444524E0,3.530801237E-1,-9.896016717E-1,-1.001819000E-1
1.134428134E0,2.180788964E-1,-9.010262489E-1,-5.986479297E-2
1.136442262E0,1.496619880E-1,-8.478809595E-1,-4.398229718E-2
1.138425873E0,6.108652335E-3,-7.263187766E-1,-1.466076635E-2
1.140470519E0,-1.386664063E-1,-5.864306092E-1,9.773843922E-3
1.142423612E0,-2.076941878E-1,-5.112941861E-1,1.954768784E-2
1.144437740E0,-3.457497358E-1,-3.616322279E-1,4.153883830E-2
1.146421350E0,-4.776966274E-1,-2.089159191E-1,6.230825558E-2
1.148435479E0,-5.375614166E-1,-1.368338168E-1,6.963863969E-2
1.150449607E0,-6.438519955E-1,6.108652451E-4,8.735372871E-2
1.152433217E0,-7.324274182E-1,1.203404516E-1,9.896016866E-2
1.154416828E0,-8.002334833E-1,2.345722616E-1,1.020144969E-1
1.156430956E0,-8.265006542E-1,2.828305960E-1,1.123992056E-1
1.158414567E0,-8.527678847E-1,3.756821156E-1,1.288925707E-1
1.160428695E0,-8.527678847E-1,4.495968223E-1,1.411098689E-1
1.162442823E0,-8.448266387E-1,4.801400900E-1,1.502728462E-1
1.164426433E0,-8.081747293E-1,5.259549618E-1,1.679879427E-1
1.166440562E0,-7.574729323E-1,5.491678715E-1,1.863138974E-1
1.168424172E0,-7.257078886E-1,5.522221923E-1,1.948660165E-1
1.170438300E0,-6.591235995E-1,5.473352671E-1,2.040289938E-1
1.172421911E0,-5.852088928E-1,5.320636034E-1,2.058615834E-1
1.174436039E0,-5.485569835E-1,5.186246037E-1,2.021963894E-1
1.176419650E0,-4.691445231E-1,4.905247986E-1,1.954768747E-1
1.178433778E0,-3.848451078E-1,4.544837475E-1,1.802052408E-1
1.180447906E0,-3.396410644E-1,4.367686510E-1,1.704314053E-1
1.182431517E0,-2.492330223E-1,4.092797041E-1,1.459967941E-1
1.184415127E0,-1.606575549E-1,3.848451078E-1,1.105666086E-1
1.186429255E0,-8.124507964E-2,3.597996235E-1,6.047565863E-2
1.188443383E0,-4.214970022E-2,3.439171314E-1,2.809980139E-2
1.190426994E0,2.932153270E-2,3.182607889E-1,-4.276056588E-2
1.192410605E0,8.918632567E-2,2.858849466E-1,-1.240056455E-1
1.194424733E0,1.123992056E-1,2.669481039E-1,-1.624901593E-1
1.196408343E0,1.539380401E-1,2.205223590E-1,-2.412917763E-1
1.198422472E0,1.814269722E-1,1.612684280E-1,-3.139847219E-1
1.200406082E0,1.942551434E-1,1.258382350E-1,-3.475823104E-1
1.202420210E0,2.070833147E-1,5.070181563E-2,-4.043927789E-1
1.204403821E0,2.070833147E-1,-3.665191308E-2,-4.477642179E-1
1.206417949E0,2.040289938E-1,-7.941248268E-2,-4.618141353E-1
1.208401560E0,1.960877478E-1,-1.661553532E-1,-4.850270152E-1
1.210415688E0,1.777617931E-1,-2.425135076E-1,-4.966334403E-1
1.212399298E0,1.704314053E-1,-2.785545588E-1,-4.978551865E-1
1.214413426E0,1.453859210E-1,-3.378084898E-1,-5.002986193E-1
1.216397037E0,1.197295859E-1,-3.787364662E-1,-4.941899776E-1
1.218411165E0,1.050688252E-1,-3.897320330E-1,-4.893030524E-1
1.220425293E0,7.147123665E-2,-3.915646076E-1,-4.728097022E-1
1.222408904E0,3.909537569E-2,-3.671300113E-1,-4.514294267E-1
1.224392515E0,8.552113548E-3,-3.115412891E-1,-4.239404798E-1
1.226406643E0,-6.108652451E-4,-2.748893499E-1,-4.080579877E-1
1.228390253E0,-2.809980139E-2,-1.844813079E-1,-3.738495409E-1
1.230434899E0,-5.253441259E-2,-7.819075137E-2,-3.433062732E-1
1.232387992E0,-6.352998316E-2,-2.260201424E-2,-3.280346394E-1
1.234402120E0,-7.757988572E-2,8.979719132E-2,-3.005456924E-1
1.236385731E0,-9.468411654E-2,2.009746730E-1,-2.779437006E-1
1.238399859E0,-9.834930301E-2,2.577851415E-1,-2.693915665E-1
1.240383469E0,-1.087340117E-1,3.634648323E-1,-2.541199327E-1
1.242397598E0,-1.117883399E-1,4.612032473E-1,-2.400700450E-1
1.244381208E0,-1.099557430E-1,5.100724697E-1,-2.370157093E-1
1.246395336E0,-1.001819000E-1,5.931501389E-1,-2.235766798E-1
1.248378947E0,-8.674286306E-2,6.627888083E-1,-2.131919712E-1
1.250423593E0,-7.880161703E-2,6.902777553E-1,-2.083050460E-1
1.252376686E0,-5.742133409E-2,7.360926270E-1,-1.924225539E-1
1.254390814E0,-3.420845419E-2,7.629706860E-1,-1.765400618E-1
1.256374424E0,-2.321287990E-2,7.703011036E-1,-1.673770845E-1
1.258388553E0,1.221730490E-3,7.843509912E-1,-1.502728462E-1
1.260402681E0,2.199114859E-2,7.776314616E-1,-1.337794960E-1
1.262386291E0,3.726277873E-2,7.556403279E-1,-1.191187203E-1
1.264369903E0,3.787364438E-2,7.367035151E-1,-1.117883399E-1
1.266384030E0,3.909537569E-2,6.951646209E-1,-1.044579595E-1
1.268367642E0,3.543018550E-2,6.462954283E-1,-9.529497474E-2
1.270412286E0,3.115412779E-2,6.249151230E-1,-9.040805697E-2
1.272365380E0,2.626720630E-2,5.791002512E-1,-8.246681094E-2
1.274379507E0,2.199114859E-2,5.387831330E-1,-6.780604273E-2
1.276363119E0,2.138028294E-2,5.210680366E-1,-6.108652428E-2
1.278377246E0,2.504547499E-2,4.868595898E-1,-4.214970022E-2
1.280360858E0,3.359758854E-2,4.544837475E-1,-1.832595654E-2
1.282374985E0,3.909537569E-2,4.398229718E-1,-2.443460980E-3
1.284358597E0,5.375614017E-2,4.105014503E-1,2.871066704E-2
1.286372724E0,7.086037099E-2,3.866777122E-1,6.108652428E-2
1.288356335E0,8.002334833E-2,3.775147200E-1,7.574728876E-2
1.290400980E0,9.896016866E-2,3.579670191E-1,9.896016866E-2
1.292354074E0,1.142318025E-1,3.463605940E-1,1.142318025E-1
1.294368201E0,1.252273768E-1,3.463605940E-1,1.178969890E-1
1.296382329E0,1.295034289E-1,3.469714522E-1,1.172861308E-1
1.298365940E0,1.386664063E-1,3.518583775E-1,1.105666086E-1
1.300380068E0,1.478293836E-1,3.671300113E-1,9.957103431E-2
1.302363679E0,1.514945775E-1,3.726277947E-1,9.040805697E-2
1.304377807E0,1.521054506E-1,3.903428912E-1,7.208210230E-2
1.306361417E0,1.594358236E-1,4.074471295E-1,4.764748737E-2
1.308375546E0,1.631010175E-1,4.153883755E-1,3.237585723E-2
1.310389674E0,1.679879427E-1,4.257730842E-1,1.221730490E-3
1.312373284E0,1.771509200E-1,4.294382632E-1,-3.543018550E-2
1.314356895E0,1.838704348E-1,4.318817258E-1,-5.497787148E-2
1.316371023E0,1.979203373E-1,4.269948006E-1,-9.468411654E-2
1.318354634E0,2.107485086E-1,4.202753007E-1,-1.356120855E-1
1.320368762E0,2.223549485E-1,4.178318381E-1,-1.496619880E-1
1.322352373E0,2.406809032E-1,4.031710625E-1,-1.802052408E-1
1.324366500E0,2.651155293E-1,3.921754956E-1,-2.028072625E-1
1.326350112E0,2.779437006E-1,3.824016452E-1,-2.083050460E-1
1.328364239E0,3.097086847E-1,3.701843321E-1,-2.150245607E-1
1.330378367E0,3.469714522E-1,3.500257730E-1,-2.156354338E-1
1.332361978E0,3.854559660E-1,3.231477141E-1,-2.089159191E-1
1.334345589E0,4.019493461E-1,3.072652221E-1,-2.015855312E-1
1.336359717E0,4.422664344E-1,2.712241709E-1,-1.881465018E-1
1.338343328E0,4.795292318E-1,2.260201424E-1,-1.716531366E-1
1.340387973E0,4.948008358E-1,2.040289938E-1,-1.618792862E-1
1.342341067E0,5.247332454E-1,1.563815027E-1,-1.423316002E-1
1.344355194E0,5.467243791E-1,1.069014147E-1,-1.209513173E-1
1.346338806E0,5.558874011E-1,8.429940045E-2,-1.099557430E-1
1.348352933E0,5.681046844E-1,3.787364438E-2,-8.674286306E-2
1.350367061E0,5.729916096E-1,-6.108652335E-3,-6.414084882E-2
1.352350672E0,5.742133260E-1,-3.054326214E-2,-5.558873713E-2
1.354364800E0,5.693264008E-1,-7.269296050E-2,-3.909537569E-2
1.356348410E0,5.607742667E-1,-1.123992056E-1,-2.321287990E-2
1.358332022E0,5.558874011E-1,-1.331686229E-1,-2.015855350E-2
1.360346149E0,5.406157374E-1,-1.771509200E-1,-1.649336144E-2
1.362360277E0,5.253441334E-1,-2.186897546E-1,-1.832595654E-2
1.364343888E0,5.167919993E-1,-2.382374406E-1,-2.504547499E-2
1.366358016E0,4.966334403E-1,-2.779437006E-1,-3.665191308E-2
1.368341627E0,4.715879560E-1,-3.268128932E-1,-5.436700583E-2
1.370355755E0,4.465425014E-1,-3.683517575E-1,-7.452555746E-2
1.372339365E0,4.331034720E-1,-3.885102868E-1,-8.491026610E-2
1.374353493E0,3.958406746E-1,-4.227187634E-1,-1.087340117E-1
1.376337104E0,3.597996235E-1,-4.563163519E-1,-1.307251602E-1
1.378351232E0,3.390302062E-1,-4.691445231E-1,-1.423316002E-1
1.380365360E0,2.950479090E-1,-4.929682612E-1,-1.618792862E-1
1.382348971E0,2.510656118E-1,-5.119050741E-1,-1.765400618E-1
1.384332582E0,2.229658216E-1,-5.204572082E-1,-1.832595766E-1
1.386346710E0,1.740965992E-1,-5.357288122E-1,-1.930334121E-1
1.388330321E0,1.203404516E-1,-5.442809463E-1,-2.052507252E-1
1.390344448E0,9.651670605E-2,-5.485569835E-1,-2.052507252E-1
1.392328060E0,4.520402849E-2,-5.503895879E-1,-2.138028294E-1
1.394342187E0,-6.108652335E-3,-5.436700583E-1,-2.174680233E-1
1.396325799E0,-3.176499158E-2,-5.387831330E-1,-2.168571651E-1
1.398339926E0,-8.185594529E-2,-5.174028873E-1,-2.156354338E-1
1.400323537E0,-1.350012124E-1,-4.966334403E-1,-2.089159191E-1
1.402337665E0,-1.832595766E-1,-4.673119187E-1,-2.003637999E-1
1.404321276E0,-2.058615834E-1,-4.550946057E-1,-1.948660165E-1
1.406335403E0,-2.492330223E-1,-4.233296216E-1,-1.789835095E-1
1.408319015E0,-2.889392674E-1,-3.921754956E-1,-1.655444801E-1
1.410333142E0,-3.048217595E-1,-3.775147200E-1,-1.563815027E-1
1.412316754E0,-3.359758854E-1,-3.500257730E-1,-1.404990107E-1
1.414330881E0,-3.616322279E-1,-3.207042515E-1,-1.240056455E-1
1.416314492E0,-3.732386529E-1,-3.048217595E-1,-1.172861308E-1
1.418328619E0,-3.866777122E-1,-2.712241709E-1,-1.007927656E-1
1.420342748E0,-3.940080702E-1,-2.400700450E-1,-8.491026610E-2
1.422326358E0,-3.946189582E-1,-2.272418737E-1,-7.757988572E-2
1.424309970E0,-3.958406746E-1,-1.979203373E-1,-6.169738993E-2
1.426324097E0,-3.940080702E-1,-1.722639948E-1,-4.703662544E-2
1.428307709E0,-3.921754956E-1,-1.624901593E-1,-4.031710699E-2
1.430321836E0,-3.854559660E-1,-1.447750628E-1,-2.443460934E-2
1.432305447E0,-3.744603992E-1,-1.313360333E-1,-8.552113548E-3
1.434319574E0,-3.665191531E-1,-1.258382350E-1,-6.108652451E-4
1.436303186E0,-3.481931984E-1,-1.172861308E-1,1.404990070E-2
1.438317313E0,-3.237585723E-1,-1.087340117E-1,2.871066704E-2
1.440300925E0,-2.962696552E-1,-9.346238524E-2,4.031710699E-2
1.442315052E0,-2.779437006E-1,-8.857546002E-2,4.642575979E-2
1.444298663E0,-2.443460971E-1,-7.269296050E-2,5.497787148E-2
1.446312792E0,-2.101376504E-1,-5.131268129E-2,6.230825558E-2
1.448296402E0,-1.899790913E-1,-4.276056588E-2,6.658431143E-2
1.450310530E0,-1.527163088E-1,-2.015855350E-2,7.330382615E-2
1.452294141E0,-1.172861308E-1,6.108652451E-4,8.735372871E-2
1.454308269E0,-1.007927656E-1,1.099557430E-2,9.285151958E-2
1.456291880E0,-6.963863969E-2,2.626720630E-2,1.032362282E-1
1.458306008E0,-4.214970022E-2,3.481931984E-2,1.154535338E-1
1.460320135E0,-3.359758854E-2,3.970624134E-2,1.197295859E-1
1.462303747E0,-1.527163107E-2,4.398229718E-2,1.343903542E-1
1.464287357E0,-4.276056774E-3,5.253441259E-2,1.441642046E-1
1.466301485E0,-3.054326167E-3,5.803219974E-2,1.484402567E-1
1.468285096E0,-6.108652451E-4,6.902777404E-2,1.618792862E-1
1.470299224E0,-3.054326167E-3,8.307767659E-2,1.759291887E-1
1.472282835E0,-3.665191587E-3,8.918632567E-2,1.789835095E-1
1.474296963E0,-6.719517522E-3,1.050688252E-1,1.912008226E-1
1.476280573E0,-1.221730467E-2,1.154535338E-1,1.991420686E-1
1.478294702E0,-1.588249579E-2,1.252273768E-1,2.034181207E-1
1.480278312E0,-1.893682219E-2,1.246165112E-1,2.052507252E-1
1.482292440E0,-1.832595654E-2,1.246165112E-1,2.107485086E-1
1.484276051E0,-2.199114859E-2,1.191187203E-1,2.113593817E-1
1.486290179E0,-2.260201424E-2,1.148426682E-1,2.076941878E-1
1.488273790E0,-2.321287990E-2,1.105666086E-1,2.076941878E-1
1.490287918E0,-2.748893574E-2,9.896016866E-2,2.015855312E-1
1.492271528E0,-2.748893574E-2,1.001819000E-1,1.991420686E-1
1.494285656E0,-2.809980139E-2,9.285151958E-2,1.918116808E-1
1.496269267E0,-3.054326214E-2,8.368854225E-2,1.820378453E-1
1.498283395E0,-2.993239649E-2,7.819075137E-2,1.789835095E-1
1.500297522E0,-2.871066704E-2,6.780604273E-2,1.667662114E-1
1.502281134E0,-2.871066704E-2,6.169738993E-2,1.551597714E-1
1.504264744E0,-2.871066704E-2,5.497787148E-2,1.527163088E-1
1.506278873E0,-2.993239649E-2,3.970624134E-2,1.423316002E-1
1.508262483E0,-2.932153270E-2,2.504547499E-2,1.319468915E-1
1.510307128E0,-3.237585723E-2,7.330383174E-3,1.233947799E-1
1.512260222E0,-2.993239649E-2,6.108652451E-4,1.178969890E-1
1.514274350E0,-3.115412779E-2,-2.321287990E-2,1.099557430E-1
1.516257961E0,-2.504547499E-2,-4.092797264E-2,1.026253626E-1
1.518272089E0,-2.748893574E-2,-4.886921868E-2,9.834930301E-2
1.520286217E0,-2.382374369E-2,-6.352998316E-2,9.590584040E-2
1.522269828E0,-1.649336144E-2,-8.674286306E-2,9.529497474E-2
1.524283956E0,-1.160643995E-2,-9.651670605E-2,9.651670605E-2
1.526267566E0,-5.497787148E-3,-1.081231460E-1,9.957103431E-2
1.528281694E0,-1.832595794E-3,-1.246165112E-1,1.026253626E-1
1.530295822E0,-1.221730490E-3,-1.343903542E-1,1.044579595E-1
1.532279433E0,-1.221730490E-3,-1.606575549E-1,1.117883399E-1
1.534263044E0,-2.443460980E-3,-1.912008226E-1,1.209513173E-1
1.536277172E0,-8.552113548E-3,-2.150245607E-1,1.185078546E-1
1.538260783E0,-2.199114859E-2,-2.846632004E-1,1.075122803E-1
1.540274911E0,-4.886921868E-2,-3.573561609E-1,8.613199741E-2
1.542258521E0,-6.597344577E-2,-3.964515328E-1,7.757988572E-2
1.544272649E0,-1.062905490E-1,-4.648684561E-1,5.314527452E-2
1.546256260E0,-1.557706445E-1,-5.253441334E-1,3.787364438E-2
1.548270388E0,-1.985312104E-1,-5.668829679E-1,2.932153270E-2
1.550284515E0,-2.180788964E-1,-5.852088928E-1,2.626720630E-2
1.552268127E0,-2.541199327E-1,-6.041457057E-1,1.710422710E-2
1.554251737E0,-2.877175212E-1,-6.035348773E-1,9.162978269E-3
1.556265866E0,-3.048217595E-1,-5.980370641E-1,3.054326167E-3
1.558249476E0,-3.335324228E-1,-5.717698932E-1,-7.941247895E-3
1.560263604E0,-3.652974069E-1,-5.381723046E-1,-2.138028294E-2
1.562247215E0,-3.799581826E-1,-5.155702829E-1,-2.932153270E-2
1.564261343E0,-4.050036669E-1,-4.673119187E-1,-3.970624134E-2
1.566275470E0,-4.263839424E-1,-4.153883755E-1,-4.764748737E-2
1.568259082E0,-4.398229718E-1,-3.915646076E-1,-5.009094998E-2
1.570273210E0,-4.581489265E-1,-3.384193480E-1,-4.764748737E-2
1.572256821E0,-4.740314186E-1,-2.938261926E-1,-4.031710699E-2
1.574270949E0,-4.789183438E-1,-2.718350291E-1,-3.359758854E-2
1.576254559E0,-4.862487316E-1,-2.394591719E-1,-2.015855350E-2
1.578268687E0,-4.880813360E-1,-2.162462920E-1,-3.665191587E-3
1.580282815E0,-4.844161272E-1,-1.973094791E-1,1.893682219E-2
1.582266426E0,-4.813618064E-1,-1.954768747E-1,2.687807009E-2
1.584250037E0,-4.728097022E-1,-1.893682331E-1,4.948008433E-2
1.586264165E0,-4.624249935E-1,-1.850921661E-1,7.269296050E-2
1.588278292E0,-4.508185387E-1,-1.899790913E-1,8.552113175E-2
1.590292420E0,-4.318817258E-1,-1.918116808E-1,1.087340117E-1
1.592245514E0,-4.135557711E-1,-1.942551434E-1,1.301143020E-1
1.594259642E0,-4.025602043E-1,-1.966986060E-1,1.435533315E-1
1.596243253E0,-3.824016452E-1,-2.009746730E-1,1.631010175E-1
1.598257381E0,-3.591887653E-1,-2.058615834E-1,1.844813079E-1
1.600240992E0,-3.463605940E-1,-2.052507252E-1,1.954768747E-1
1.602255120E0,-3.225368559E-1,-2.064724565E-1,2.113593817E-1
1.604238730E0,-3.060434759E-1,-2.076941878E-1,2.260201424E-1
1.606252859E0,-2.999348342E-1,-2.089159191E-1,2.333505303E-1
1.608236469E0,-2.834414840E-1,-2.131919712E-1,2.425135076E-1
1.610281114E0,-2.742784917E-1,-2.131919712E-1,2.510656118E-1
1.612234208E0,-2.718350291E-1,-2.101376504E-1,2.541199327E-1
1.614248336E0,-2.626720667E-1,-2.083050460E-1,2.626720667E-1
1.616231947E0,-2.602286041E-1,-1.973094791E-1,2.669481039E-1
1.618246075E0,-2.541199327E-1,-1.820378453E-1,2.718350291E-1
1.620260202E0,-2.474004179E-1,-1.747074574E-1,2.730567753E-1
1.622243814E0,-2.419026345E-1,-1.545489132E-1,2.718350291E-1
1.624227424E0,-2.333505303E-1,-1.374446750E-1,2.718350291E-1
1.626241552E0,-2.296853364E-1,-1.252273768E-1,2.687807083E-1
1.628225163E0,-2.180788964E-1,-1.130100712E-1,2.590068579E-1
1.630269808E0,-2.089159191E-1,-1.044579595E-1,2.425135076E-1
1.632222902E0,-2.052507252E-1,-9.896016866E-2,2.333505303E-1
1.634237030E0,-1.960877478E-1,-9.957103431E-2,2.119702399E-1
1.636251158E0,-1.899790913E-1,-1.075122803E-1,1.881465018E-1
1.638234768E0,-1.875356287E-1,-1.093448773E-1,1.753183305E-1
1.640248897E0,-1.814269722E-1,-1.288925707E-1,1.502728462E-1
1.642232507E0,-1.850921661E-1,-1.545489132E-1,1.191187203E-1
1.644246635E0,-1.857030392E-1,-1.716531366E-1,1.032362282E-1
1.646230246E0,-1.918116808E-1,-2.021963894E-1,7.208210230E-2
1.648244374E0,-2.034181207E-1,-2.345722616E-1,3.787364438E-2
1.650258501E0,-2.193006277E-1,-2.700024247E-1,7.941247895E-3
1.652242113E0,-2.266310006E-1,-2.840523422E-1,-8.552113548E-3
1.654225723E0,-2.449569702E-1,-3.170390725E-1,-3.604105115E-2
1.656239852E0,-2.681698501E-1,-3.475823104E-1,-6.047565863E-2
1.658223462E0,-2.803871334E-1,-3.616322279E-1,-7.330382615E-2
1.660237590E0,-3.066543639E-1,-3.830125034E-1,-9.651670605E-2
1.662221201E0,-3.347541690E-1,-4.031710625E-1,-1.166752651E-1
1.664235329E0,-3.494149148E-1,-4.105014503E-1,-1.270599663E-1
1.666218940E0,-3.769038618E-1,-4.172209501E-1,-1.429424733E-1
1.668233068E0,-4.031710625E-1,-4.166100919E-1,-1.588249654E-1
1.670247195E0,-4.147774875E-1,-4.178318381E-1,-1.649336219E-1
1.672230806E0,-4.367686510E-1,-4.105014503E-1,-1.740965992E-1
1.674214417E0,-4.550946057E-1,-4.050036669E-1,-1.808161139E-1
1.676228545E0,-4.660901725E-1,-4.019493461E-1,-1.857030392E-1
1.678212156E0,-4.789183438E-1,-3.958406746E-1,-1.899790913E-1
1.680226284E0,-4.899139404E-1,-3.909537494E-1,-1.948660165E-1
1.682209895E0,-4.917465150E-1,-3.891211748E-1,-1.973094791E-1
1.684224023E0,-4.948008358E-1,-3.811798990E-1,-2.003637999E-1
1.686207633E0,-4.960225821E-1,-3.781255782E-1,-2.040289938E-1
1.688221761E0,-4.893030524E-1,-3.671300113E-1,-2.101376504E-1
1.690235890E0,-4.825835526E-1,-3.616322279E-1,-2.162462920E-1
1.692219500E0,-4.715879560E-1,-3.512475193E-1,-2.247984111E-1
1.694203111E0,-4.550946057E-1,-3.341432810E-1,-2.357939780E-1
1.696217239E0,-4.428772926E-1,-3.262020350E-1,-2.419026345E-1
1.698200849E0,-4.251621962E-1,-3.042109013E-1,-2.583959997E-1
1.700245494E0,-4.031710625E-1,-2.803871334E-1,-2.712241709E-1
1.702229106E0,-3.903428912E-1,-2.632829249E-1,-2.779437006E-1
1.704212716E0,-3.720169365E-1,-2.315179259E-1,-2.852740586E-1
1.706226845E0,-3.543018401E-1,-1.997529417E-1,-2.926044464E-1
1.708210455E0,-3.426954150E-1,-1.826487035E-1,-2.926044464E-1
1.710224583E0,-3.219259977E-1,-1.502728462E-1,-2.950479090E-1
1.712208194E0,-3.048217595E-1,-1.209513173E-1,-2.932153046E-1
1.714222322E0,-2.938261926E-1,-1.069014147E-1,-2.907718420E-1
1.716205933E0,-2.718350291E-1,-8.368854225E-2,-2.852740586E-1
1.718220061E0,-2.528982162E-1,-6.169738993E-2,-2.803871334E-1
1.720203671E0,-2.431243658E-1,-5.375614017E-2,-2.761110961E-1
1.722217799E0,-2.235766798E-1,-3.787364438E-2,-2.687807083E-1
1.724201410E0,-2.034181207E-1,-2.138028294E-2,-2.559525371E-1
1.726215538E0,-1.832595766E-1,-6.719517522E-3,-2.400700450E-1
1.728199149E0,-1.734857261E-1,-1.221730490E-3,-2.321287990E-1
1.730213277E0,-1.557706445E-1,1.527163107E-2,-2.131919712E-1
1.732196888E0,-1.392772794E-1,2.565634064E-2,-1.948660165E-1
1.734211016E0,-1.301143020E-1,3.237585723E-2,-1.844813079E-1
1.736194626E0,-1.117883399E-1,4.214970022E-2,-1.637118906E-1
1.738208754E0,-9.529497474E-2,4.948008433E-2,-1.508837193E-1
1.740222882E0,-8.368854225E-2,5.619960278E-2,-1.447750628E-1
1.742206493E0,-6.719517708E-2,5.925392732E-2,-1.331686229E-1
1.744190104E0,-5.070181563E-2,6.291911751E-2,-1.295034289E-1
1.746204232E0,-4.398229718E-2,6.475171447E-2,-1.301143020E-1
1.748187842E0,-2.993239649E-2,6.597344577E-2,-1.325577646E-1
1.750232487E0,-1.893682219E-2,6.780604273E-2,-1.380555481E-1
1.752185581E0,-1.649336144E-2,6.963863969E-2,-1.411098689E-1
1.754199709E0,-4.886921961E-3,7.941248268E-2,-1.484402567E-1
1.756183320E0,1.221730490E-3,9.285151958E-2,-1.569923609E-1
1.758197448E0,5.497787148E-3,9.957103431E-2,-1.594358236E-1
1.760181059E0,1.282817032E-2,1.160643995E-1,-1.612684280E-1
1.762195187E0,2.504547499E-2,1.319468915E-1,-1.649336219E-1
1.764178797E0,3.420845419E-2,1.441642046E-1,-1.679879427E-1
1.766192926E0,4.092797264E-2,1.472185254E-1,-1.673770845E-1
1.768176536E0,5.314527452E-2,1.496619880E-1,-1.692096740E-1
1.770221181E0,6.780604273E-2,1.496619880E-1,-1.667662114E-1
1.772174275E0,7.391469181E-2,1.435533315E-1,-1.655444801E-1
1.774188403E0,8.674286306E-2,1.362229437E-1,-1.576032341E-1
1.776172014E0,9.346238524E-2,1.172861308E-1,-1.551597714E-1
1.778186142E0,9.346238524E-2,1.062905490E-1,-1.527163088E-1
1.780200270E0,8.796459436E-2,8.124507964E-2,-1.447750628E-1
1.782183880E0,7.574728876E-2,5.803219974E-2,-1.350012124E-1
1.784167491E0,6.841690838E-2,4.459316283E-2,-1.288925707E-1
1.786181619E0,5.009094998E-2,2.932153270E-2,-1.172861308E-1
1.788165230E0,2.382374369E-2,1.588249579E-2,-1.020144969E-1
1.790209875E0,1.282817032E-2,1.099557430E-2,-9.407325089E-2
1.792162969E0,-1.038470957E-2,6.719517522E-3,-8.063421398E-2
1.794177097E0,-3.543018550E-2,9.773843922E-3,-6.597344577E-2
1.796160707E0,-5.864306539E-2,2.076941915E-2,-5.497787148E-2
1.798174835E0,-6.780604273E-2,2.809980139E-2,-4.948008433E-2
1.800158446E0,-9.346238524E-2,4.642575979E-2,-4.398229718E-2
1.802172574E0,-1.130100712E-1,7.208210230E-2,-3.420845419E-2
1.804156185E0,-1.240056455E-1,8.246681094E-2,-3.481931984E-2
1.806170313E0,-1.429424733E-1,1.044579595E-1,-2.809980139E-2
1.808153923E0,-1.618792862E-1,1.264491081E-1,-2.382374369E-2
1.810198568E0,-1.710422635E-1,1.356120855E-1,-2.138028294E-2
1.812151662E0,-1.850921661E-1,1.551597714E-1,-1.710422710E-2
1.814165790E0,-1.966986060E-1,1.685988009E-1,-1.160643995E-2
1.816179919E0,-2.009746730E-1,1.740965992E-1,-9.162978269E-3
1.818163529E0,-2.028072625E-1,1.820378453E-1,-5.497787148E-3
1.820177657E0,-2.034181207E-1,1.887573600E-1,1.832595794E-3
1.822161268E0,-2.009746730E-1,1.899790913E-1,3.665191587E-3
1.824175396E0,-1.930334121E-1,1.918116808E-1,7.941247895E-3
1.826159007E0,-1.838704348E-1,1.893682331E-1,1.404990070E-2
1.828173135E0,-1.753183305E-1,1.899790913E-1,1.893682219E-2
1.830187263E0,-1.618792862E-1,1.887573600E-1,2.504547499E-2
1.832170873E0,-1.453859210E-1,1.838704348E-1,2.932153270E-2
1.834154484E0,-1.295034289E-1,1.808161139E-1,3.420845419E-2
1.836168612E0,-1.203404516E-1,1.783726513E-1,3.726277873E-2
1.838152223E0,-1.032362282E-1,1.728748679E-1,4.337143153E-2
1.840166351E0,-8.857546002E-2,1.698205322E-1,5.009094998E-2
1.842149961E0,-8.185594529E-2,1.631010175E-1,5.314527452E-2
1.844164090E0,-6.536258012E-2,1.569923609E-1,6.169738993E-2
1.846147700E0,-5.009094998E-2,1.521054506E-1,7.269296050E-2
1.848161828E0,-4.520402849E-2,1.502728462E-1,7.941248268E-2
1.850175957E0,-3.237585723E-2,1.447750628E-1,9.224065393E-2
1.852159567E0,-2.015855350E-2,1.411098689E-1,1.050688252E-1
1.854143178E0,-1.588249579E-2,1.398881376E-1,1.130100712E-1
1.856157306E0,-4.276056774E-3,1.356120855E-1,1.258382350E-1
1.858140916E0,4.276056774E-3,1.325577646E-1,1.368338168E-1
1.860155045E0,7.941247895E-3,1.313360333E-1,1.447750628E-1
1.862138655E0,1.588249579E-2,1.185078546E-1,1.545489132E-1
1.864152783E0,1.710422710E-2,1.038470939E-1,1.667662114E-1
1.866136394E0,1.954768784E-2,9.407325089E-2,1.740965992E-1
1.868150522E0,2.015855350E-2,7.024950534E-2,1.875356287E-1
1.870164650E0,1.710422710E-2,5.131268129E-2,1.966986060E-1
1.872148261E0,8.552113548E-3,2.932153270E-2,2.076941878E-1
1.874131871E0,4.886921961E-3,2.138028294E-2,2.107485086E-1
1.876146000E0,-6.108652451E-4,-2.443460980E-3,2.199114859E-1
1.878129610E0,-1.588249579E-2,-2.260201424E-2,2.223549485E-1
1.880143738E0,-2.076941915E-2,-2.382374369E-2,2.247984111E-1
1.882127349E0,-3.543018550E-2,-2.626720630E-2,2.272418737E-1
1.884141477E0,-4.764748737E-2,-2.015855350E-2,2.223549485E-1
1.886125088E0,-5.192354694E-2,-1.588249579E-2,2.211332172E-1
1.888139216E0,-6.047565863E-2,-4.276056774E-3,2.119702399E-1
1.890153344E0,-7.147123665E-2,7.941247895E-3,2.015855312E-1
1.892136954E0,-7.269296050E-2,1.527163107E-2,1.948660165E-1
1.894120565E0,-7.819075137E-2,2.504547499E-2,1.795943826E-1
1.896134693E0,-8.246681094E-2,3.481931984E-2,1.624901593E-1
1.898118304E0,-8.307767659E-2,3.726277873E-2,1.514945775E-1
1.900162950E0,-8.613199741E-2,3.848451003E-2,1.295034289E-1
1.902116043E0,-8.307767659E-2,4.459316283E-2,1.093448773E-1
1.904130171E0,-7.941248268E-2,4.642575979E-2,8.857546002E-2
1.906113781E0,-7.635815442E-2,4.337143153E-2,7.941248268E-2
1.908127909E0,-6.841690838E-2,4.276056588E-2,6.414084882E-2
1.910142038E0,-6.169738993E-2,3.604105115E-2,4.886921868E-2
1.912125648E0,-5.375614017E-2,2.993239649E-2,4.153883830E-2
1.914109259E0,-4.337143153E-2,1.893682219E-2,2.748893574E-2
1.916123387E0,-2.809980139E-2,3.054326167E-3,1.404990070E-2
1.918106997E0,-2.015855350E-2,-4.276056774E-3,1.038470957E-2
1.920121126E0,-6.108652451E-4,-2.076941915E-2,-1.221730490E-3
1.922135254E0,1.771509275E-2,-3.726277873E-2,-1.221730467E-2
1.924118864E0,2.809980139E-2,-4.459316283E-2,-1.649336144E-2
1.926132992E0,4.581489414E-2,-5.558873713E-2,-2.626720630E-2
1.928116603E0,6.536258012E-2,-5.925392732E-2,-3.726277873E-2
1.930130731E0,7.391469181E-2,-6.230825558E-2,-4.214970022E-2
1.932114342E0,8.796459436E-2,-6.108652428E-2,-5.314527452E-2
1.934128470E0,1.020144969E-1,-4.092797264E-2,-6.291911751E-2
1.936112081E0,1.075122803E-1,-2.993239649E-2,-6.658431143E-2
1.938095691E0,1.185078546E-1,-4.276056774E-3,-6.902777404E-2
1.940140337E0,1.319468915E-1,3.176499158E-2,-7.208210230E-2
1.942093431E0,1.472185254E-1,6.352998316E-2,-6.902777404E-2
1.944107558E0,1.557706445E-1,8.124507964E-2,-6.658431143E-2
1.946091170E0,1.704314053E-1,1.093448773E-1,-5.864306539E-2
1.948105297E0,1.875356287E-1,1.331686229E-1,-4.825835302E-2
1.950119425E0,1.948660165E-1,1.466076523E-1,-4.092797264E-2
1.952103035E0,2.113593817E-1,1.655444801E-1,-3.054326214E-2
1.954117164E0,2.278527319E-1,1.844813079E-1,-1.282817032E-2
1.956100774E0,2.351831198E-1,1.918116808E-1,-4.276056774E-3
1.958114902E0,2.510656118E-1,2.107485086E-1,1.771509275E-2
1.960098513E0,2.614503205E-1,2.241875380E-1,4.153883830E-2
1.962112641E0,2.700024247E-1,2.321287990E-1,5.436700583E-2
1.964096252E0,2.785545588E-1,2.437352389E-1,8.368854225E-2
1.966110380E0,2.919935882E-1,2.467895597E-1,1.136209369E-1
1.968093990E0,2.962696552E-1,2.510656118E-1,1.282816976E-1
1.970108119E0,3.036000133E-1,2.461786866E-1,1.569923609E-1
1.972091729E0,3.121521473E-1,2.388483137E-1,1.869247705E-1
1.974105857E0,3.109304011E-1,2.321287990E-1,1.973094791E-1
1.976089468E0,3.158173263E-1,2.150245607E-1,2.186897546E-1
1.978103596E0,3.127630055E-1,1.936442852E-1,2.425135076E-1
1.980117724E0,3.042109013E-1,1.716531366E-1,2.626720667E-1
1.982070818E0,3.036000133E-1,1.606575549E-1,2.736676335E-1
1.984084945E0,2.889392674E-1,1.398881376E-1,2.889392674E-1
1.986068557E0,2.712241709E-1,1.215621829E-1,3.023782969E-1
1.988113202E0,2.614503205E-1,1.130100712E-1,3.097086847E-1
1.990096812E0,2.394591719E-1,8.918632567E-2,3.188716471E-1
1.992080423E0,2.144137025E-1,6.963863969E-2,3.255911767E-1
1.994064034E0,1.997529417E-1,6.047565863E-2,3.262020350E-1
1.996078162E0,1.679879427E-1,4.825835302E-2,3.304781020E-1
1.998061773E0,1.392772794E-1,3.909537569E-2,3.304781020E-1
2.000075901E0,1.221730486E-1,3.481931984E-2,3.286454976E-1
2.002059512E0,9.101892263E-2,3.115412779E-2,3.310889602E-1
2.004073640E0,5.436700583E-2,2.687807009E-2,3.262020350E-1
2.006057251E0,3.848451003E-2,2.687807009E-2,3.237585723E-1
2.008071379E0,-6.108652451E-4,2.504547499E-2,3.225368559E-1
2.010085506E0,-3.665191308E-2,2.382374369E-2,3.164281845E-1
2.012069117E0,-5.619960278E-2,2.076941915E-2,3.145956099E-1
2.014052728E0,-9.651670605E-2,1.404990070E-2,3.133738637E-1
2.016066856E0,-1.307251602E-1,6.719517522E-3,3.072652221E-1
2.018050467E0,-1.643227488E-1,-4.886921961E-3,2.993239760E-1
2.020095112E0,-1.802052408E-1,-8.552113548E-3,2.968805134E-1
2.022048206E0,-2.028072625E-1,-2.565634064E-2,2.901609838E-1
2.024062334E0,-2.223549485E-1,-4.276056588E-2,2.828305960E-1
2.026045944E0,-2.309070677E-1,-5.314527452E-2,2.803871334E-1
2.028060072E0,-2.437352389E-1,-8.063421398E-2,2.712241709E-1
2.030074200E0,-2.504547536E-1,-1.105666086E-1,2.669481039E-1
2.032057811E0,-2.522873580E-1,-1.252273768E-1,2.626720667E-1
2.034041422E0,-2.516764700E-1,-1.618792862E-1,2.541199327E-1
2.036055550E0,-2.437352389E-1,-2.046398520E-1,2.461786866E-1
2.038039160E0,-2.400700450E-1,-2.241875380E-1,2.412917763E-1
2.040053289E0,-2.278527319E-1,-2.761110961E-1,2.315179259E-1
2.042036899E0,-2.138028294E-1,-3.255911767E-1,2.193006277E-1
2.044051027E0,-2.034181207E-1,-3.500257730E-1,2.150245607E-1
2.046034638E0,-1.820378453E-1,-4.001167417E-1,2.015855312E-1
2.048048766E0,-1.557706445E-1,-4.453207552E-1,1.875356287E-1
2.050062893E0,-1.221730486E-1,-4.862487316E-1,1.747074574E-1
2.052046505E0,-1.062905490E-1,-5.076290369E-1,1.649336219E-1
2.054030115E0,-6.902777404E-2,-5.412266254E-1,1.484402567E-1
2.056044244E0,-3.359758854E-2,-5.705481172E-1,1.301143020E-1
2.058027854E0,-1.404990070E-2,-5.797111392E-1,1.221730486E-1
2.060072499E0,1.710422710E-2,-5.913175344E-1,9.896016866E-2
2.062025593E0,5.375614017E-2,-5.870414972E-1,7.819075137E-2
2.064039721E0,6.780604273E-2,-5.827654600E-1,6.719517708E-2
2.066023332E0,9.407325089E-2,-5.650503635E-1,4.581489414E-2
2.068037460E0,1.148426682E-1,-5.320636034E-1,2.321287990E-2
2.070051588E0,1.215621829E-1,-5.100724697E-1,1.038470957E-2
2.072035199E0,1.380555481E-1,-4.605923891E-1,-1.527163107E-2
2.074018809E0,1.484402567E-1,-3.958406746E-1,-3.726277873E-2
2.076032937E0,1.539380401E-1,-3.604104817E-1,-4.703662544E-2
2.078016548E0,1.685988009E-1,-2.840523422E-1,-6.719517708E-2
2.080030676E0,1.814269722E-1,-2.052507252E-1,-8.674286306E-2
2.082014287E0,1.881465018E-1,-1.667662114E-1,-9.407325089E-2
2.084028415E0,2.076941878E-1,-8.368854225E-2,-1.142318025E-1
2.086012025E0,2.272418737E-1,-4.886921961E-3,-1.325577646E-1
2.088026153E0,2.510656118E-1,7.330382615E-2,-1.484402567E-1
2.090040282E0,2.638937831E-1,1.093448773E-1,-1.545489132E-1
2.092023892E0,2.913827300E-1,1.765400618E-1,-1.667662114E-1
2.094007503E0,3.188716471E-1,2.370157093E-1,-1.759291887E-1
2.096021631E0,3.353650272E-1,2.638937831E-1,-1.814269722E-1
2.098005241E0,3.695734739E-1,3.121521473E-1,-1.881465018E-1
2.100049886E0,4.019493461E-1,3.512475193E-1,-1.905899495E-1
2.102033498E0,4.208861589E-1,3.652974069E-1,-1.887573600E-1
2.104017108E0,4.550946057E-1,3.885102868E-1,-1.869247705E-1
2.106000719E0,4.886921942E-1,3.976732790E-1,-1.795943826E-1
2.108014847E0,5.027421117E-1,3.976732790E-1,-1.759291887E-1
2.110028975E0,5.363397002E-1,3.995058835E-1,-1.637118906E-1
2.112012586E0,5.717698932E-1,3.946189582E-1,-1.447750628E-1
2.113996196E0,5.882632136E-1,3.915646076E-1,-1.356120855E-1
2.116010325E0,6.224716902E-1,3.842342496E-1,-1.111774743E-1
2.117993935E0,6.585127115E-1,3.775147200E-1,-8.674286306E-2
2.120008063E0,6.743952036E-1,3.744603992E-1,-7.574728876E-2
2.121991674E0,7.086036801E-1,3.616322279E-1,-5.253441259E-2
2.124005802E0,7.385360599E-1,3.530801237E-1,-2.932153270E-2
2.125989413E0,7.593054771E-1,3.420845270E-1,-9.162978269E-3
2.128003541E0,7.684684992E-1,3.371976018E-1,-1.832595794E-3
2.130017669E0,7.800748944E-1,3.286454976E-1,1.588249579E-2
2.132001280E0,7.770205736E-1,3.176499307E-1,3.115412779E-2
2.133984890E0,7.727445364E-1,3.139847219E-1,3.665191308E-2
2.135999018E0,7.562511563E-1,3.066543639E-1,4.703662544E-2
2.137982629E0,7.275404930E-1,3.042109013E-1,5.558873713E-2
2.139996757E0,7.086036801E-1,3.042109013E-1,5.497787148E-2
2.141980368E0,6.652322412E-1,3.103195429E-1,5.803219974E-2
2.143994496E0,6.151412725E-1,3.176499307E-1,5.619960278E-2
2.145978106E0,5.839871764E-1,3.200933933E-1,5.375614017E-2
2.147992234E0,5.271766782E-1,3.323107064E-1,5.070181563E-2
2.150006363E0,4.630358517E-1,3.426954150E-1,4.581489414E-2
2.151989973E0,4.318817258E-1,3.481931984E-1,4.520402849E-2
2.153973584E0,3.671300113E-1,3.549126983E-1,4.337143153E-2
2.155987712E0,3.036000133E-1,3.530801237E-1,4.092797264E-2
2.157971323E0,2.376265824E-1,3.469714522E-1,4.031710699E-2
2.159985451E0,2.070833147E-1,3.420845270E-1,4.214970022E-2
2.161969061E0,1.429424733E-1,3.292563558E-1,4.520402849E-2
2.163983189E0,8.857546002E-2,3.115412891E-1,5.253441259E-2
2.165966800E0,6.169738993E-2,2.981022298E-1,5.742133409E-2
2.167980928E0,1.221730467E-2,2.730567753E-1,6.902777404E-2
2.169995056E0,-3.237585723E-2,2.431243658E-1,8.429940045E-2
2.171978667E0,-5.009094998E-2,2.235766798E-1,9.162978828E-2
2.173962277E0,-8.368854225E-2,1.875356287E-1,1.069014147E-1
2.175976406E0,-1.154535338E-1,1.502728462E-1,1.178969890E-1
2.177960016E0,-1.288925707E-1,1.307251602E-1,1.233947799E-1
2.179974144E0,-1.521054506E-1,9.773843735E-2,1.301143020E-1
2.181957755E0,-1.722639948E-1,6.352998316E-2,1.301143020E-1
2.183971883E0,-1.789835095E-1,4.703662544E-2,1.295034289E-1
2.185955494E0,-1.918116808E-1,1.954768784E-2,1.240056455E-1
2.187969622E0,-1.979203373E-1,-1.832595794E-3,1.178969890E-1
2.189983750E0,-1.979203373E-1,-1.160643995E-2,1.130100712E-1
2.191967361E0,-2.003637999E-1,-3.054326214E-2,1.032362282E-1
2.193950972E0,-1.924225539E-1,-4.825835302E-2,9.162978828E-2
2.195965099E0,-1.857030392E-1,-6.414084882E-2,7.880161703E-2
2.197948711E0,-1.777617931E-1,-7.330382615E-2,6.963863969E-2
2.199962838E0,-1.576032341E-1,-8.613199741E-2,5.436700583E-2
2.201946450E0,-1.325577646E-1,-9.529497474E-2,4.092797264E-2
2.203960577E0,-1.203404516E-1,-9.651670605E-2,3.237585723E-2
2.205944188E0,-8.796459436E-2,-9.651670605E-2,1.954768784E-2
2.207958315E0,-5.497787148E-2,-9.834930301E-2,7.330383174E-3
2.209972444E0,-3.726277873E-2,-9.834930301E-2,-6.108652451E-4
2.211956054E0,-1.832595794E-3,-1.007927656E-1,-1.466076635E-2
2.213939666E0,3.237585723E-2,-1.020144969E-1,-2.138028294E-2
2.215953793E0,5.253441259E-2,-1.007927656E-1,-1.832595654E-2
2.217937405E0,8.674286306E-2,-1.062905490E-1,-1.893682219E-2
2.219982049E0,1.276708394E-1,-1.117883399E-1,-1.343903504E-2
2.221935143E0,1.472185254E-1,-1.197295859E-1,-1.221730467E-2
2.223949270E0,1.820378453E-1,-1.356120855E-1,-7.941247895E-3
2.225932882E0,2.162462920E-1,-1.521054506E-1,6.108652451E-4
2.227947009E0,2.278527319E-1,-1.594358236E-1,3.054326167E-3
2.229961137E0,2.571742535E-1,-1.734857261E-1,1.099557430E-2
2.231944748E0,2.779437006E-1,-1.777617931E-1,1.771509275E-2
2.233958876E0,2.962696552E-1,-1.771509200E-1,2.565634064E-2
2.235942487E0,2.999348342E-1,-1.734857261E-1,3.237585723E-2
2.237956615E0,3.054326177E-1,-1.606575549E-1,3.909537569E-2
2.239940225E0,3.072652221E-1,-1.478293836E-1,4.886921868E-2
2.241954354E0,3.054326177E-1,-1.362229437E-1,5.192354694E-2
2.243937964E0,2.999348342E-1,-1.117883399E-1,5.803219974E-2
2.245952092E0,2.889392674E-1,-8.124507964E-2,6.047565863E-2
2.247935703E0,2.822197378E-1,-6.414084882E-2,6.352998316E-2
2.249949831E0,2.657263875E-1,-2.443460934E-2,6.475171447E-2
2.251933443E0,2.492330223E-1,1.710422710E-2,6.963863969E-2
2.253947570E0,2.400700450E-1,3.726277873E-2,6.902777404E-2
2.255931181E0,2.186897546E-1,7.452555746E-2,6.963863969E-2
2.257945308E0,1.948660165E-1,1.154535338E-1,7.024950534E-2
2.259959437E0,1.838704348E-1,1.319468915E-1,7.086037099E-2
2.261943047E0,1.624901593E-1,1.649336219E-1,7.452555746E-2
2.263926659E0,1.435533315E-1,1.930334121E-1,7.635815442E-2
2.265940786E0,1.380555481E-1,2.070833147E-1,7.635815442E-2
2.267924397E0,1.240056455E-1,2.272418737E-1,7.635815442E-2
2.269938525E0,1.185078546E-1,2.431243658E-1,7.635815442E-2
2.271922136E0,1.178969890E-1,2.565633953E-1,7.757988572E-2
2.273936263E0,1.197295859E-1,2.626720667E-1,7.635815442E-2
2.275919875E0,1.276708394E-1,2.712241709E-1,8.307767659E-2
2.277934002E0,1.398881376E-1,2.797762752E-1,8.918632567E-2
2.279917614E0,1.472185254E-1,2.803871334E-1,9.346238524E-2
2.281931741E0,1.655444801E-1,2.864958048E-1,1.032362282E-1
2.283915352E0,1.802052408E-1,2.877175212E-1,1.148426682E-1
2.285929480E0,1.912008226E-1,2.864958048E-1,1.221730486E-1
2.287913091E0,2.052507252E-1,2.748893499E-1,1.350012124E-1
2.289927218E0,2.205223590E-1,2.632829249E-1,1.478293836E-1
2.291910830E0,2.266310006E-1,2.541199327E-1,1.527163088E-1
2.293924957E0,2.327396572E-1,2.309070677E-1,1.661553532E-1
2.295908569E0,2.376265824E-1,2.034181207E-1,1.765400618E-1
2.297922696E0,2.382374406E-1,1.905899495E-1,1.808161139E-1
2.299936824E0,2.339613885E-1,1.649336219E-1,1.863138974E-1
2.301920435E0,2.260201424E-1,1.392772794E-1,1.893682331E-1
2.303904046E0,2.107485086E-1,1.197295859E-1,1.869247705E-1
2.305918173E0,2.021963894E-1,1.093448773E-1,1.844813079E-1
2.307901785E0,1.857030392E-1,9.529497474E-2,1.795943826E-1
2.309915912E0,1.655444801E-1,7.941248268E-2,1.704314053E-1
2.311899524E0,1.557706445E-1,7.574728876E-2,1.673770845E-1
2.313883134E0,1.331686229E-1,6.414084882E-2,1.576032341E-1
2.315897262E0,1.075122803E-1,5.375614017E-2,1.441642046E-1
2.317880873E0,9.590584040E-2,4.520402849E-2,1.392772794E-1
2.319895001E0,7.086037099E-2,3.054326214E-2,1.240056455E-1
2.321878612E0,4.153883830E-2,1.221730467E-2,1.087340117E-1
2.323892740E0,2.626720630E-2,2.443460980E-3,1.032362282E-1
2.325876350E0,0.000000000E0,-1.832595654E-2,8.918632567E-2
2.327890479E0,-2.748893574E-2,-3.237585723E-2,7.391469181E-2
2.329904607E0,-4.153883830E-2,-4.092797264E-2,6.719517708E-2
2.331888217E0,-6.963863969E-2,-5.192354694E-2,5.619960278E-2
2.333871828E0,-9.407325089E-2,-5.925392732E-2,4.886921868E-2
2.335885956E0,-1.062905490E-1,-6.597344577E-2,4.581489414E-2
2.337869567E0,-1.301143020E-1,-6.719517708E-2,4.092797264E-2
2.339914211E0,-1.490511149E-1,-7.086037099E-2,3.787364438E-2
2.341867305E0,-1.643227488E-1,-6.475171447E-2,3.787364438E-2
2.343881433E0,-1.667662114E-1,-6.169738993E-2,3.726277873E-2
2.345865044E0,-1.765400618E-1,-6.047565863E-2,3.726277873E-2
2.347879172E0,-1.777617931E-1,-5.742133409E-2,4.337143153E-2
2.349893300E0,-1.771509200E-1,-5.558873713E-2,4.703662544E-2
2.351876911E0,-1.777617931E-1,-5.070181563E-2,5.436700583E-2
2.353860521E0,-1.728748679E-1,-4.886921868E-2,6.780604273E-2
2.355874650E0,-1.722639948E-1,-4.581489414E-2,7.269296050E-2
2.357858260E0,-1.673770845E-1,-4.276056588E-2,9.040805697E-2
2.359872388E0,-1.600466967E-1,-3.543018550E-2,1.050688252E-1
2.361855999E0,-1.557706445E-1,-3.237585723E-2,1.142318025E-1
2.363870127E0,-1.514945775E-1,-2.932153270E-2,1.325577646E-1
2.365853738E0,-1.386664063E-1,-1.832595654E-2,1.539380401E-1
2.367867866E0,-1.331686229E-1,-1.466076635E-2,1.637118906E-1
2.369881994E0,-1.197295859E-1,-6.719517522E-3,1.850921661E-1
2.371865605E0,-1.026253626E-1,1.221730490E-3,2.015855312E-1
2.373849215E0,-9.712757170E-2,7.941247895E-3,2.089159191E-1
2.375863343E0,-8.124507964E-2,1.832595654E-2,2.272418737E-1
2.377846954E0,-6.475171447E-2,2.687807009E-2,2.412917763E-1
2.379891600E0,-4.581489414E-2,3.359758854E-2,2.559525371E-1
2.381844693E0,-3.665191308E-2,3.359758854E-2,2.620611787E-1
2.383858821E0,-1.710422710E-2,2.993239649E-2,2.730567753E-1
2.385842431E0,0.000000000E0,2.260201424E-2,2.791654170E-1
2.387887077E0,8.552113548E-3,1.404990070E-2,2.809980214E-1
2.389870688E0,2.443460934E-2,-3.665191587E-3,2.834414840E-1
2.391854298E0,3.970624134E-2,-2.626720630E-2,2.797762752E-1
2.393837909E0,4.764748737E-2,-3.726277873E-2,2.761110961E-1
2.395852037E0,6.169738993E-2,-6.169738993E-2,2.706133127E-1
2.397835648E0,7.513642311E-2,-9.224065393E-2,2.590068579E-1
2.399849776E0,7.941248268E-2,-1.038470939E-1,2.528982162E-1
2.401833386E0,9.040805697E-2,-1.350012124E-1,2.388483137E-1
2.403847514E0,9.407325089E-2,-1.600466967E-1,2.235766798E-1
2.405831125E0,9.468411654E-2,-1.765400618E-1,2.144137025E-1
2.407845253E0,9.468411654E-2,-2.015855312E-1,1.973094791E-1
2.409859381E0,8.857546002E-2,-2.217440903E-1,1.783726513E-1
2.411842992E0,8.735372871E-2,-2.296853364E-1,1.704314053E-1
2.413857120E0,7.574728876E-2,-2.419026345E-1,1.496619880E-1
2.415840731E0,6.536258012E-2,-2.486221492E-1,1.295034289E-1
2.417854859E0,5.192354694E-2,-2.596177161E-1,1.099557430E-1
2.419868987E0,4.581489414E-2,-2.657263875E-1,1.014036313E-1
2.421852598E0,2.748893574E-2,-2.736676335E-1,7.880161703E-2
2.423836208E0,7.330383174E-3,-2.761110961E-1,5.925392732E-2
2.425850336E0,-4.276056774E-3,-2.761110961E-1,5.009094998E-2
2.427833947E0,-2.993239649E-2,-2.712241709E-1,3.054326214E-2
2.429848075E0,-5.742133409E-2,-2.577851415E-1,1.588249579E-2
2.431831686E0,-7.086037099E-2,-2.504547536E-1,1.038470957E-2
2.433845814E0,-9.529497474E-2,-2.290744632E-1,0.000000000E0
2.435829424E0,-1.209513173E-1,-2.028072625E-1,-1.832595794E-3
2.437843552E0,-1.343903542E-1,-1.918116808E-1,-4.276056774E-3
2.439827163E0,-1.533271819E-1,-1.655444801E-1,-4.276056774E-3
2.441841291E0,-1.747074574E-1,-1.404990107E-1,-1.832595794E-3
2.443824902E0,-1.820378453E-1,-1.301143020E-1,2.443460980E-3
2.445839030E0,-1.973094791E-1,-1.111774743E-1,8.552113548E-3
2.447822641E0,-2.058615834E-1,-9.651670605E-2,1.588249579E-2
2.449867286E0,-2.119702399E-1,-8.491026610E-2,2.504547499E-2
2.451820379E0,-2.150245607E-1,-8.429940045E-2,2.748893574E-2
2.453834507E0,-2.113593817E-1,-7.941248268E-2,3.543018550E-2
2.455818118E0,-2.034181207E-1,-7.452555746E-2,3.848451003E-2
2.457832246E0,-2.003637999E-1,-7.513642311E-2,4.153883830E-2
2.459846374E0,-1.887573600E-1,-7.330382615E-2,4.092797264E-2
2.461829985E0,-1.753183305E-1,-7.574728876E-2,4.031710699E-2
2.463813595E0,-1.655444801E-1,-7.635815442E-2,3.726277873E-2
2.465827724E0,-1.466076523E-1,-7.757988572E-2,3.359758854E-2
2.467811334E0,-1.246165112E-1,-8.063421398E-2,2.687807009E-2
2.469855980E0,-1.123992056E-1,-8.002334833E-2,2.321287990E-2
2.471839591E0,-9.040805697E-2,-8.613199741E-2,1.343903504E-2
2.473823201E0,-6.597344577E-2,-9.529497474E-2,-6.108652451E-4
2.475837329E0,-5.436700583E-2,-1.020144969E-1,-6.108652335E-3
2.477820940E0,-2.871066704E-2,-1.148426682E-1,-2.504547499E-2
2.479835068E0,-9.773843922E-3,-1.264491081E-1,-4.276056588E-2
2.481818679E0,4.276056774E-3,-1.337794960E-1,-5.253441259E-2
2.483832807E0,1.954768784E-2,-1.380555481E-1,-7.269296050E-2
2.485816417E0,4.031710699E-2,-1.368338168E-1,-8.979719132E-2
2.487830545E0,5.314527452E-2,-1.337794960E-1,-1.081231460E-1
2.489844674E0,5.803219974E-2,-1.319468915E-1,-1.172861308E-1
2.491828284E0,6.352998316E-2,-1.307251602E-1,-1.356120855E-1
2.493811895E0,6.841690838E-2,-1.240056455E-1,-1.539380401E-1
2.495826023E0,6.780604273E-2,-1.240056455E-1,-1.606575549E-1
2.497809634E0,6.169738993E-2,-1.185078546E-1,-1.783726513E-1
2.499823762E0,5.436700583E-2,-1.069014147E-1,-1.881465018E-1
2.501807372E0,4.948008433E-2,-1.032362282E-1,-1.936442852E-1
2.503821500E0,4.092797264E-2,-8.429940045E-2,-2.003637999E-1
2.505805111E0,2.748893574E-2,-6.352998316E-2,-2.070833147E-1
2.507819239E0,2.138028294E-2,-5.009094998E-2,-2.076941878E-1
2.509833367E0,8.552113548E-3,-2.504547499E-2,-2.101376504E-1
2.511816978E0,-2.443460980E-3,2.443460980E-3,-2.076941878E-1
2.513800588E0,-6.108652335E-3,1.893682219E-2,-2.040289938E-1
2.515814717E0,-9.773843922E-3,4.398229718E-2,-1.954768747E-1
2.517798327E0,-1.282817032E-2,6.414084882E-2,-1.808161139E-1
2.519812455E0,-1.343903504E-2,8.368854225E-2,-1.692096740E-1
2.521796066E0,-1.221730467E-2,8.735372871E-2,-1.618792862E-1
2.523810194E0,-1.038470957E-2,8.674286306E-2,-1.466076523E-1
2.525793805E0,-4.276056774E-3,8.246681094E-2,-1.319468915E-1
2.527807933E0,0.000000000E0,7.635815442E-2,-1.246165112E-1
2.529822061E0,1.038470957E-2,6.536258012E-2,-1.142318025E-1
2.531805672E0,1.710422710E-2,4.520402849E-2,-1.075122803E-1
2.533789282E0,2.199114859E-2,3.359758854E-2,-1.038470939E-1
2.535803410E0,3.298672289E-2,2.015855350E-2,-9.773843735E-2
2.537787021E0,4.153883830E-2,1.221730490E-3,-9.834930301E-2
2.539831667E0,4.581489414E-2,-4.886921961E-3,-9.834930301E-2
2.541815277E0,5.558873713E-2,-1.832595654E-2,-9.834930301E-2
2.543798888E0,6.536258012E-2,-3.054326214E-2,-1.050688252E-1
2.545813016E0,6.658431143E-2,-3.726277873E-2,-1.087340117E-1
2.547796626E0,7.147123665E-2,-4.825835302E-2,-1.197295859E-1
2.549810755E0,7.574728876E-2,-5.803219974E-2,-1.301143020E-1
2.551794365E0,7.635815442E-2,-6.169738993E-2,-1.368338168E-1
2.553808493E0,7.086037099E-2,-6.841690838E-2,-1.484402567E-1
2.555792104E0,6.352998316E-2,-7.147123665E-2,-1.618792862E-1
2.557806232E0,5.864306539E-2,-7.391469181E-2,-1.673770845E-1
2.559789843E0,5.558873713E-2,-6.902777404E-2,-1.692096740E-1
2.561803971E0,4.703662544E-2,-6.963863969E-2,-1.734857261E-1
2.563787581E0,3.237585723E-2,-7.208210230E-2,-1.765400618E-1
2.565801710E0,2.809980139E-2,-7.269296050E-2,-1.740965992E-1
2.567785320E0,1.099557430E-2,-8.002334833E-2,-1.722639948E-1
2.569829966E0,-4.276056774E-3,-8.429940045E-2,-1.722639948E-1
2.571783059E0,-1.160643995E-2,-8.429940045E-2,-1.685988009E-1
2.573797187E0,-2.748893574E-2,-8.429940045E-2,-1.631010175E-1
2.575780798E0,-4.153883830E-2,-8.246681094E-2,-1.533271819E-1
2.577794926E0,-4.703662544E-2,-7.819075137E-2,-1.484402567E-1
2.579809054E0,-5.375614017E-2,-7.941248268E-2,-1.368338168E-1
2.581792665E0,-6.230825558E-2,-8.063421398E-2,-1.307251602E-1
2.583776275E0,-6.536258012E-2,-7.880161703E-2,-1.252273768E-1
2.585790403E0,-6.841690838E-2,-7.819075137E-2,-1.178969890E-1
2.587774014E0,-6.597344577E-2,-7.941248268E-2,-1.105666086E-1
2.589818660E0,-6.291911751E-2,-8.063421398E-2,-1.038470939E-1
2.591771753E0,-5.925392732E-2,-8.185594529E-2,-1.001819000E-1
2.593785881E0,-5.131268129E-2,-8.674286306E-2,-9.162978828E-2
2.595800009E0,-4.337143153E-2,-9.285151958E-2,-8.124507964E-2
2.597783619E0,-3.787364438E-2,-9.957103431E-2,-7.635815442E-2
2.599797748E0,-3.176499158E-2,-1.160643995E-1,-6.658431143E-2
2.601781358E0,-1.649336144E-2,-1.423316002E-1,-6.230825558E-2
2.603795486E0,-1.588249579E-2,-1.582140923E-1,-5.803219974E-2
2.605779097E0,-5.497787148E-3,-1.881465018E-1,-5.375614017E-2
2.607793225E0,7.330383174E-3,-2.247984111E-1,-5.192354694E-2
2.609807353E0,1.099557430E-2,-2.400700450E-1,-5.192354694E-2
2.611790964E0,1.893682219E-2,-2.700024247E-1,-5.619960278E-2
2.613774574E0,2.932153270E-2,-3.023782969E-1,-6.291911751E-2
2.615788703E0,3.481931984E-2,-3.145956099E-1,-6.719517708E-2
2.617772313E0,3.909537569E-2,-3.402519524E-1,-7.941248268E-2
2.619816959E0,4.520402849E-2,-3.604104817E-1,-9.407325089E-2
2.621770052E0,5.009094998E-2,-3.714060783E-1,-1.032362282E-1
2.623784180E0,5.253441259E-2,-3.817907870E-1,-1.197295859E-1
2.625798308E0,5.558873713E-2,-3.866777122E-1,-1.392772794E-1
2.627781919E0,5.558873713E-2,-3.824016452E-1,-1.631010175E-1
2.629796047E0,5.864306539E-2,-3.775147200E-1,-1.740965992E-1
2.631779657E0,6.169738993E-2,-3.622430861E-1,-1.960877478E-1
2.633793786E0,6.230825558E-2,-3.414736688E-1,-2.174680233E-1
2.635777396E0,6.780604273E-2,-3.268128932E-1,-2.296853364E-1
2.637791524E0,7.269296050E-2,-2.956587672E-1,-2.522873580E-1
2.639775135E0,8.002334833E-2,-2.547308207E-1,-2.755002379E-1
2.641789263E0,8.491026610E-2,-2.357939780E-1,-2.871066630E-1
2.643772874E0,9.468411654E-2,-1.893682331E-1,-3.066543639E-1
2.645787002E0,1.069014147E-1,-1.386664063E-1,-3.225368559E-1
2.647770612E0,1.142318025E-1,-1.154535338E-1,-3.310889602E-1
2.649815257E0,1.313360333E-1,-6.658431143E-2,-3.420845270E-1
2.651768351E0,1.582140923E-1,-2.015855350E-2,-3.469714522E-1
2.653782479E0,1.716531366E-1,3.665191587E-3,-3.469714522E-1
2.655796607E0,2.058615834E-1,3.665191308E-2,-3.469714522E-1
2.657780218E0,2.461786866E-1,6.414084882E-2,-3.426954150E-1
2.659794346E0,2.871066630E-1,7.696902007E-2,-3.396410644E-1
2.661777957E0,3.090978265E-1,7.941248268E-2,-3.371976018E-1
2.663792085E0,3.555235863E-1,7.513642311E-2,-3.292563558E-1
2.665775696E0,3.976732790E-1,6.230825558E-2,-3.158173263E-1
2.667789824E0,4.184426963E-1,5.192354694E-2,-3.097086847E-1
2.669803951E0,4.612032473E-1,2.871066704E-2,-2.938261926E-1
2.671787562E0,4.948008358E-1,-6.108652451E-4,-2.755002379E-1
2.673771173E0,5.131267905E-1,-1.588249579E-2,-2.657263875E-1
2.675785301E0,5.412266254E-1,-5.497787148E-2,-2.461786866E-1
2.677768912E0,5.613851547E-1,-8.918632567E-2,-2.278527319E-1
2.679783040E0,5.693264008E-1,-1.062905490E-1,-2.180788964E-1
2.681766650E0,5.815436840E-1,-1.411098689E-1,-1.954768747E-1
2.683780779E0,5.778785348E-1,-1.734857261E-1,-1.777617931E-1
2.685764389E0,5.729916096E-1,-1.850921661E-1,-1.685988009E-1
2.687778517E0,5.564982295E-1,-2.113593817E-1,-1.527163088E-1
2.689792645E0,5.302310586E-1,-2.321287990E-1,-1.356120855E-1
2.691776256E0,5.161811113E-1,-2.394591719E-1,-1.319468915E-1
2.693759867E0,4.764748812E-1,-2.547308207E-1,-1.215621829E-1
2.695773995E0,4.386012554E-1,-2.657263875E-1,-1.117883399E-1
2.697757605E0,3.927863538E-1,-2.816088796E-1,-1.081231460E-1
2.699802250E0,3.701843321E-1,-2.852740586E-1,-1.087340117E-1
2.701785862E0,3.170390725E-1,-2.956587672E-1,-1.111774743E-1
2.703769472E0,2.681698501E-1,-3.042109013E-1,-1.142318025E-1
2.705783600E0,2.412917763E-1,-3.036000133E-1,-1.166752651E-1
2.707767211E0,1.936442852E-1,-3.042109013E-1,-1.264491081E-1
2.709781339E0,1.459967941E-1,-2.950479090E-1,-1.356120855E-1
2.711764950E0,1.240056455E-1,-2.864958048E-1,-1.398881376E-1
2.713779078E0,7.880161703E-2,-2.675589919E-1,-1.539380401E-1
2.715762688E0,3.970624134E-2,-2.419026345E-1,-1.692096740E-1
2.717776817E0,2.138028294E-2,-2.290744632E-1,-1.795943826E-1
2.719760427E0,-1.099557430E-2,-2.028072625E-1,-1.930334121E-1
2.721774555E0,-4.398229718E-2,-1.753183305E-1,-2.119702399E-1
2.723758166E0,-5.558873713E-2,-1.624901593E-1,-2.174680233E-1
2.725772294E0,-7.513642311E-2,-1.441642046E-1,-2.302961946E-1
2.727755905E0,-8.918632567E-2,-1.221730486E-1,-2.425135076E-1
2.729800549E0,-9.529497474E-2,-9.957103431E-2,-2.504547536E-1
2.731753643E0,-9.712757170E-2,-8.796459436E-2,-2.498438805E-1
2.733767772E0,-9.162978828E-2,-7.208210230E-2,-2.498438805E-1
2.735751382E0,-8.002334833E-2,-5.864306539E-2,-2.455678284E-1
2.737765510E0,-7.208210230E-2,-5.497787148E-2,-2.412917763E-1
2.739779638E0,-5.436700583E-2,-4.703662544E-2,-2.321287990E-1
2.741763249E0,-3.787364438E-2,-3.848451003E-2,-2.229658216E-1
2.743746860E0,-2.809980139E-2,-3.604105115E-2,-2.193006277E-1
2.745760988E0,-1.099557430E-2,-3.359758854E-2,-2.101376504E-1
2.747775116E0,7.330383174E-3,-2.687807009E-2,-1.985312104E-1
2.749789243E0,1.954768784E-2,-2.321287990E-2,-1.936442852E-1
2.751772855E0,3.665191308E-2,-1.466076635E-2,-1.795943826E-1
2.753756465E0,5.681046844E-2,-4.276056774E-3,-1.667662114E-1
2.755770593E0,6.780604273E-2,3.665191587E-3,-1.600466967E-1
2.757754204E0,8.613199741E-2,1.771509275E-2,-1.472185254E-1
2.759768332E0,1.050688252E-1,3.237585723E-2,-1.350012124E-1
2.761751943E0,1.148426682E-1,4.031710699E-2,-1.276708394E-1
2.763766071E0,1.356120855E-1,5.497787148E-2,-1.160643995E-1
2.765749681E0,1.533271819E-1,6.841690838E-2,-1.044579595E-1
2.767763810E0,1.710422635E-1,8.124507964E-2,-9.162978828E-2
2.769777937E0,1.789835095E-1,8.674286306E-2,-8.735372871E-2
2.771761548E0,1.960877478E-1,9.529497474E-2,-7.574728876E-2
2.773745159E0,2.076941878E-1,1.014036313E-1,-6.291911751E-2
2.775759287E0,2.174680233E-1,1.044579595E-1,-5.558873713E-2
2.777742898E0,2.345722616E-1,1.056796908E-1,-3.909537569E-2
2.779757026E0,2.510656118E-1,1.026253626E-1,-2.138028294E-2
2.781740636E0,2.583959997E-1,9.957103431E-2,-1.343903504E-2
2.783754765E0,2.785545588E-1,8.674286306E-2,3.054326167E-3
2.785738375E0,2.926044464E-1,6.719517708E-2,1.588249579E-2
2.787783020E0,3.036000133E-1,5.436700583E-2,2.199114859E-2
2.789766630E0,3.158173263E-1,2.932153270E-2,3.359758854E-2
2.791750242E0,3.243694305E-1,-3.054326167E-3,4.398229718E-2
2.793733853E0,3.255911767E-1,-1.771509275E-2,4.948008433E-2
2.795747981E0,3.231477141E-1,-5.131268129E-2,5.497787148E-2
2.797731591E0,3.090978265E-1,-8.002334833E-2,6.047565863E-2
2.799745719E0,2.987131178E-1,-9.285151958E-2,6.291911751E-2
2.801729330E0,2.748893499E-1,-1.191187203E-1,6.475171447E-2
2.803743458E0,2.406809032E-1,-1.368338168E-1,7.269296050E-2
2.805727069E0,2.034181207E-1,-1.490511149E-1,7.696902007E-2
2.807741197E0,1.838704348E-1,-1.545489132E-1,8.063421398E-2
2.809755325E0,1.429424733E-1,-1.600466967E-1,8.674286306E-2
2.811738936E0,9.529497474E-2,-1.606575549E-1,9.101892263E-2
2.813753064E0,7.391469181E-2,-1.612684280E-1,9.346238524E-2
2.815736674E0,2.748893574E-2,-1.631010175E-1,9.407325089E-2
2.817750803E0,-1.954768784E-2,-1.594358236E-1,9.590584040E-2
2.819764930E0,-4.214970022E-2,-1.606575549E-1,9.773843735E-2
2.821748541E0,-8.918632567E-2,-1.545489132E-1,9.407325089E-2
2.823732152E0,-1.319468915E-1,-1.527163088E-1,9.285151958E-2
2.825746280E0,-1.533271819E-1,-1.490511149E-1,9.346238524E-2
2.827729891E0,-1.924225539E-1,-1.514945775E-1,9.346238524E-2
2.829744019E0,-2.302961946E-1,-1.539380401E-1,8.735372871E-2
2.831727629E0,-2.480112910E-1,-1.533271819E-1,8.552113175E-2
2.833741758E0,-2.773328125E-1,-1.606575549E-1,8.124507964E-2
2.835725368E0,-3.011565804E-1,-1.710422635E-1,7.574728876E-2
2.837739496E0,-3.176499307E-1,-1.795943826E-1,7.024950534E-2
2.839723107E0,-3.268128932E-1,-1.869247705E-1,6.780604273E-2
2.841737235E0,-3.353650272E-1,-1.942551434E-1,6.352998316E-2
2.843720846E0,-3.414736688E-1,-2.040289938E-1,5.558873713E-2
2.845734974E0,-3.414736688E-1,-2.070833147E-1,5.436700583E-2
2.847718584E0,-3.384193480E-1,-2.125810981E-1,5.131268129E-2
2.849763229E0,-3.335324228E-1,-2.223549485E-1,4.581489414E-2
2.851716323E0,-3.280346394E-1,-2.266310006E-1,4.581489414E-2
2.853730451E0,-3.176499307E-1,-2.345722616E-1,3.970624134E-2
2.855714062E0,-3.090978265E-1,-2.431243658E-1,3.909537569E-2
2.857728190E0,-3.036000133E-1,-2.486221492E-1,3.604105115E-2
2.859742317E0,-2.907718420E-1,-2.602286041E-1,2.993239649E-2
2.861725929E0,-2.785545588E-1,-2.718350291E-1,2.199114859E-2
2.863709539E0,-2.712241709E-1,-2.779437006E-1,1.954768784E-2
2.865723667E0,-2.608394623E-1,-2.883284092E-1,8.552113548E-3
2.867707278E0,-2.449569702E-1,-2.974913716E-1,-1.832595794E-3
2.869751923E0,-2.376265824E-1,-2.999348342E-1,-7.941247895E-3
2.871705017E0,-2.235766798E-1,-3.054326177E-1,-1.771509275E-2
2.873719145E0,-2.070833147E-1,-3.066543639E-1,-3.054326214E-2
2.875702755E0,-1.948660165E-1,-3.054326177E-1,-3.909537569E-2
2.877716884E0,-1.893682331E-1,-3.048217595E-1,-4.337143153E-2
2.879700494E0,-1.747074574E-1,-2.993239760E-1,-5.314527452E-2
2.881714622E0,-1.624901593E-1,-2.950479090E-1,-5.864306539E-2
2.883698233E0,-1.563815027E-1,-2.913827300E-1,-6.047565863E-2
2.885712361E0,-1.453859210E-1,-2.828305960E-1,-6.352998316E-2
2.887726489E0,-1.350012124E-1,-2.724458873E-1,-6.230825558E-2
2.889740616E0,-1.276708394E-1,-2.681698501E-1,-6.108652428E-2
2.891724228E0,-1.203404516E-1,-2.528982162E-1,-6.169738993E-2
2.893707839E0,-1.136209369E-1,-2.376265824E-1,-5.864306539E-2
2.895721967E0,-1.056796908E-1,-2.290744632E-1,-5.742133409E-2
2.897705577E0,-1.020144969E-1,-2.058615834E-1,-5.558873713E-2
2.899719705E0,-9.407325089E-2,-1.844813079E-1,-5.192354694E-2
2.901703316E0,-8.857546002E-2,-1.734857261E-1,-4.703662544E-2
2.903717444E0,-8.185594529E-2,-1.484402567E-1,-4.153883830E-2
2.905701055E0,-6.902777404E-2,-1.258382350E-1,-3.604105115E-2
2.907715183E0,-6.291911751E-2,-1.142318025E-1,-3.665191308E-2
2.909729310E0,-5.192354694E-2,-9.468411654E-2,-3.481931984E-2
2.911712922E0,-3.604105115E-2,-7.696902007E-2,-3.176499158E-2
2.913696532E0,-2.138028294E-2,-5.864306539E-2,-2.871066704E-2
2.915710660E0,-1.404990070E-2,-4.764748737E-2,-2.932153270E-2
2.917694271E0,3.054326167E-3,-3.787364438E-2,-2.687807009E-2
2.919708399E0,1.771509275E-2,-2.748893574E-2,-2.504547499E-2
2.921692010E0,2.443460934E-2,-2.199114859E-2,-2.321287990E-2
2.923706138E0,3.543018550E-2,-1.404990070E-2,-2.748893574E-2
2.925689748E0,4.337143153E-2,-6.719517522E-3,-2.809980139E-2
2.927703877E0,4.642575979E-2,-4.276056774E-3,-2.871066704E-2
2.929718005E0,5.009094998E-2,1.099557430E-2,-3.543018550E-2
2.931701615E0,5.375614017E-2,2.504547499E-2,-3.909537569E-2
2.933715743E0,5.436700583E-2,3.420845419E-2,-4.214970022E-2
2.935699354E0,5.742133409E-2,6.230825558E-2,-4.886921868E-2
2.937713482E0,5.375614017E-2,8.857546002E-2,-5.742133409E-2
2.939727609E0,5.192354694E-2,1.026253626E-1,-6.169738993E-2
2.941711221E0,5.070181563E-2,1.362229437E-1,-6.719517708E-2
2.943694831E0,4.948008433E-2,1.728748679E-1,-7.452555746E-2
2.945708960E0,4.825835302E-2,2.070833147E-1,-7.635815442E-2
2.947692570E0,5.009094998E-2,2.254092693E-1,-7.574728876E-2
2.949737215E0,5.070181563E-2,2.553416789E-1,-7.757988572E-2
2.951690309E0,5.497787148E-2,2.816088796E-1,-7.513642311E-2
2.953704437E0,5.864306539E-2,2.913827300E-1,-7.513642311E-2
2.955688048E0,7.024950534E-2,3.054326177E-1,-6.841690838E-2
2.957702176E0,8.674286306E-2,3.145956099E-1,-6.597344577E-2
2.959685786E0,9.468411654E-2,3.133738637E-1,-6.047565863E-2
2.961699915E0,1.142318025E-1,3.060434759E-1,-5.436700583E-2
2.963714042E0,1.331686229E-1,2.871066630E-1,-4.825835302E-2
2.965697653E0,1.429424733E-1,2.748893499E-1,-4.581489414E-2
2.967711780E0,1.612684280E-1,2.480112910E-1,-4.153883830E-2
2.969725909E0,1.814269722E-1,2.186897546E-1,-3.481931984E-2
2.971709519E0,1.875356287E-1,2.028072625E-1,-3.176499158E-2
2.973693131E0,2.083050460E-1,1.728748679E-1,-2.382374369E-2
2.975707258E0,2.223549485E-1,1.404990107E-1,-1.893682219E-2
2.977690870E0,2.284636050E-1,1.246165112E-1,-1.588249579E-2
2.979704997E0,2.431243658E-1,9.407325089E-2,-1.343903504E-2
2.981688608E0,2.528982162E-1,6.475171447E-2,-1.221730467E-2
2.983702736E0,2.602286041E-1,4.031710699E-2,-1.282817032E-2
2.985686347E0,2.620611787E-1,2.871066704E-2,-1.221730467E-2
2.987700475E0,2.614503205E-1,4.886921961E-3,-1.404990070E-2
2.989714602E0,2.614503205E-1,-1.221730467E-2,-1.832595654E-2
2.991698214E0,2.590068579E-1,-2.321287990E-2,-2.076941915E-2
2.993681824E0,2.528982162E-1,-4.092797264E-2,-2.626720630E-2
2.995695953E0,2.419026345E-1,-5.864306539E-2,-3.237585723E-2
2.997679563E0,2.345722616E-1,-6.902777404E-2,-3.848451003E-2
2.999693691E0,2.199114859E-1,-8.979719132E-2,-4.520402849E-2
3.001677302E0,2.015855312E-1,-1.099557430E-1,-5.314527452E-2
3.003691430E0,1.905899495E-1,-1.203404516E-1,-5.925392732E-2
3.005675041E0,1.679879427E-1,-1.435533315E-1,-6.658431143E-2
3.007689169E0,1.417207420E-1,-1.612684280E-1,-7.330382615E-2
3.009703296E0,1.270599663E-1,-1.685988009E-1,-7.635815442E-2
3.011686908E0,9.834930301E-2,-1.795943826E-1,-8.307767659E-2
3.013670518E0,6.719517708E-2,-1.863138974E-1,-8.735372871E-2
3.015684646E0,3.665191308E-2,-1.850921661E-1,-9.224065393E-2
3.017668257E0,2.076941915E-2,-1.838704348E-1,-9.407325089E-2
3.019712902E0,-1.160643995E-2,-1.722639948E-1,-9.346238524E-2
3.021696512E0,-4.398229718E-2,-1.576032341E-1,-9.346238524E-2
3.023680124E0,-5.803219974E-2,-1.466076523E-1,-9.468411654E-2
3.025694251E0,-9.101892263E-2,-1.221730486E-1,-9.529497474E-2
3.027677862E0,-1.209513173E-1,-9.590584040E-2,-9.101892263E-2
3.029691990E0,-1.331686229E-1,-7.880161703E-2,-9.101892263E-2
3.031675601E0,-1.600466967E-1,-4.214970022E-2,-8.857546002E-2
3.033689728E0,-1.795943826E-1,-4.276056774E-3,-8.429940045E-2
3.035673340E0,-1.863138974E-1,1.466076635E-2,-8.185594529E-2
3.037687467E0,-1.979203373E-1,5.192354694E-2,-7.574728876E-2
3.039671079E0,-2.040289938E-1,8.185594529E-2,-7.269296050E-2
3.041685206E0,-2.052507252E-1,9.957103431E-2,-7.024950534E-2
3.043668817E0,-1.991420686E-1,1.288925707E-1,-6.414084882E-2
3.045682946E0,-1.893682331E-1,1.521054506E-1,-5.986479297E-2
3.047666556E0,-1.850921661E-1,1.612684280E-1,-5.803219974E-2
3.049680684E0,-1.618792862E-1,1.820378453E-1,-5.375614017E-2
3.051664295E0,-1.374446750E-1,1.954768747E-1,-4.642575979E-2
3.053678423E0,-1.093448773E-1,2.009746730E-1,-4.092797264E-2
3.055662034E0,-9.162978828E-2,2.040289938E-1,-3.543018550E-2
3.057676162E0,-5.558873713E-2,2.034181207E-1,-2.748893574E-2
3.059690289E0,-2.260201424E-2,1.954768747E-1,-2.076941915E-2
3.061673901E0,-2.443460980E-3,1.905899495E-1,-1.588249579E-2
3.063657511E0,3.359758854E-2,1.759291887E-1,-1.099557430E-2
3.065671639E0,7.086037099E-2,1.551597714E-1,-4.276056774E-3
3.067655250E0,8.857546002E-2,1.429424733E-1,-2.443460980E-3
3.069699895E0,1.233947799E-1,1.246165112E-1,1.832595794E-3
3.071652989E0,1.502728462E-1,1.056796908E-1,1.832595794E-3
3.073667117E0,1.618792862E-1,9.468411654E-2,1.221730490E-3
3.075650727E0,1.826487035E-1,8.002334833E-2,5.497787148E-3
3.077664855E0,1.966986060E-1,6.291911751E-2,2.443460980E-3
3.079648466E0,2.052507252E-1,6.047565863E-2,1.832595794E-3
3.081662594E0,2.089159191E-1,5.009094998E-2,-3.054326167E-3
3.083676721E0,2.089159191E-1,4.092797264E-2,-4.886921961E-3
3.085660333E0,2.028072625E-1,3.848451003E-2,-9.162978269E-3
3.087674460E0,1.991420686E-1,3.359758854E-2,-1.343903504E-2
3.089688588E0,1.863138974E-1,3.420845419E-2,-2.015855350E-2
3.091672199E0,1.710422635E-1,3.298672289E-2,-2.932153270E-2
3.093655810E0,1.631010175E-1,3.115412779E-2,-3.359758854E-2
3.095669938E0,1.435533315E-1,2.504547499E-2,-4.153883830E-2
3.097653549E0,1.270599663E-1,2.260201424E-2,-4.948008433E-2
3.099667676E0,1.160643995E-1,1.832595654E-2,-5.619960278E-2
3.101651288E0,9.468411654E-2,3.054326167E-3,-6.719517708E-2
3.103665415E0,7.391469181E-2,-1.466076635E-2,-7.819075137E-2
3.105649027E0,6.291911751E-2,-2.809980139E-2,-8.429940045E-2
3.107663155E0,3.970624134E-2,-5.375614017E-2,-9.529497474E-2
3.109677282E0,1.771509275E-2,-8.368854225E-2,-1.105666086E-1
3.111660893E0,5.497787148E-3,-9.773843735E-2,-1.172861308E-1
3.113644504E0,-1.588249579E-2,-1.227839142E-1,-1.301143020E-1
3.115658632E0,-3.726277873E-2,-1.453859210E-1,-1.429424733E-1
3.117642243E0,-4.703662544E-2,-1.600466967E-1,-1.514945775E-1
3.119656371E0,-6.658431143E-2,-1.814269722E-1,-1.655444801E-1
3.121639982E0,-7.941248268E-2,-1.930334121E-1,-1.814269722E-1
3.123654110E0,-9.712757170E-2,-2.052507252E-1,-1.979203373E-1
3.125637720E0,-1.014036313E-1,-2.070833147E-1,-2.040289938E-1
3.127651848E0,-1.075122803E-1,-2.070833147E-1,-2.168571651E-1
3.129665976E0,-1.105666086E-1,-1.985312104E-1,-2.296853364E-1
3.131649587E0,-1.136209369E-1,-1.948660165E-1,-2.382374406E-1
3.133663714E0,-1.136209369E-1,-1.789835095E-1,-2.492330223E-1
3.135647326E0,-1.111774743E-1,-1.588249654E-1,-2.583959997E-1
3.137661453E0,-1.111774743E-1,-1.459967941E-1,-2.614503205E-1
3.139675581E0,-1.099557430E-1,-1.117883399E-1,-2.675589919E-1
3.141659192E0,-1.069014147E-1,-7.086037099E-2,-2.663372457E-1
3.143642803E0,-1.020144969E-1,-4.886921868E-2,-2.663372457E-1
3.145656931E0,-9.590584040E-2,-2.443460980E-3,-2.626720667E-1
3.147640542E0,-8.552113175E-2,4.825835302E-2,-2.522873580E-1
3.149654669E0,-8.246681094E-2,7.208210230E-2,-2.492330223E-1
3.151638281E0,-7.024950534E-2,1.221730486E-1,-2.382374406E-1
3.153652408E0,-5.192354694E-2,1.643227488E-1,-2.229658216E-1
3.155636020E0,-3.604105115E-2,2.015855312E-1,-2.052507252E-1
3.157650147E0,-2.871066704E-2,2.144137025E-1,-1.985312104E-1
3.159633758E0,-9.162978269E-3,2.437352389E-1,-1.753183305E-1
3.161647885E0,1.160643995E-2,2.687807083E-1,-1.508837193E-1
3.163631497E0,2.504547499E-2,2.785545588E-1,-1.380555481E-1
3.165645624E0,5.192354694E-2,2.981022298E-1,-1.123992056E-1
3.167629236E0,7.574728876E-2,3.048217595E-1,-8.735372871E-2
3.169673881E0,9.285151958E-2,3.097086847E-1,-7.147123665E-2
3.171657491E0,1.276708394E-1,3.133738637E-1,-4.581489414E-2
3.173641103E0,1.563815027E-1,3.084869385E-1,-1.893682219E-2
3.175655230E0,1.747074574E-1,3.072652221E-1,-6.719517522E-3
3.177638841E0,2.083050460E-1,2.968805134E-1,1.588249579E-2
3.179652969E0,2.364048511E-1,2.761110961E-1,3.420845419E-2
3.181636580E0,2.510656118E-1,2.663372457E-1,4.276056588E-2
3.183650707E0,2.748893499E-1,2.370157093E-1,5.497787148E-2
3.185634319E0,2.944370508E-1,2.089159191E-1,6.352998316E-2
3.187648446E0,3.036000133E-1,1.954768747E-1,6.719517708E-2
3.189662574E0,3.145956099E-1,1.692096740E-1,6.841690838E-2
3.191646185E0,3.225368559E-1,1.478293836E-1,6.963863969E-2
3.193629796E0,3.255911767E-1,1.295034289E-1,6.658431143E-2
3.195643923E0,3.268128932E-1,1.215621829E-1,6.536258012E-2
3.197627535E0,3.243694305E-1,1.111774743E-1,6.230825558E-2
3.199641662E0,3.219259977E-1,1.007927656E-1,5.619960278E-2
3.201625274E0,3.170390725E-1,9.529497474E-2,5.314527452E-2
3.203639401E0,3.090978265E-1,9.040805697E-2,4.581489414E-2
3.205623013E0,2.987131178E-1,8.002334833E-2,3.665191308E-2
3.207637140E0,2.938261926E-1,7.819075137E-2,3.115412779E-2
3.209651268E0,2.828305960E-1,7.208210230E-2,2.321287990E-2
3.211634878E0,2.712241709E-1,6.230825558E-2,1.466076635E-2
3.213618490E0,2.651155293E-1,6.047565863E-2,1.221730467E-2
3.215632617E0,2.516764700E-1,5.009094998E-2,6.108652335E-3
3.217616229E0,2.382374406E-1,4.092797264E-2,6.108652451E-4
3.219660873E0,2.333505303E-1,3.420845419E-2,-6.108652451E-4
3.221644484E0,2.211332172E-1,2.015855350E-2,-3.665191587E-3
3.223628095E0,2.046398520E-1,4.276056774E-3,-8.552113548E-3
3.225642223E0,2.009746730E-1,-7.330383174E-3,-1.038470957E-2
3.227625834E0,1.893682331E-1,-2.382374369E-2,-1.404990070E-2
3.229639962E0,1.808161139E-1,-3.726277873E-2,-1.343903504E-2
3.231623573E0,1.698205322E-1,-4.764748737E-2,-1.404990070E-2
3.233637700E0,1.661553532E-1,-5.314527452E-2,-1.343903504E-2
3.235621312E0,1.624901593E-1,-6.047565863E-2,-1.099557430E-2
3.237635439E0,1.594358236E-1,-6.780604273E-2,-7.330383174E-3
3.239619051E0,1.582140923E-1,-6.780604273E-2,-7.941247895E-3
3.241633178E0,1.588249654E-1,-7.269296050E-2,-4.886921961E-3
3.243616789E0,1.643227488E-1,-6.597344577E-2,-1.221730490E-3
3.245630916E0,1.667662114E-1,-6.536258012E-2,6.108652451E-4
3.247614528E0,1.734857261E-1,-5.925392732E-2,9.162978269E-3
3.249659173E0,1.814269722E-1,-5.253441259E-2,1.588249579E-2
3.251612267E0,1.838704348E-1,-4.948008433E-2,1.832595654E-2
3.253626394E0,1.991420686E-1,-3.726277873E-2,2.748893574E-2
3.255610006E0,2.095267773E-1,-3.176499158E-2,3.909537569E-2
3.257624133E0,2.180788964E-1,-2.687807009E-2,4.398229718E-2
3.259638261E0,2.302961946E-1,-2.504547499E-2,5.131268129E-2
3.261621871E0,2.431243658E-1,-2.015855350E-2,6.230825558E-2
3.263605483E0,2.590068579E-1,-1.588249579E-2,6.963863969E-2
3.265619610E0,2.651155293E-1,-1.282817032E-2,7.635815442E-2
3.267603222E0,2.791654170E-1,-4.276056774E-3,8.552113175E-2
3.269647866E0,2.895501256E-1,4.886921961E-3,9.224065393E-2
3.271631477E0,2.944370508E-1,1.221730467E-2,9.712757170E-2
3.273615088E0,3.029891551E-1,2.687807009E-2,1.087340117E-1
3.275629216E0,3.054326177E-1,5.375614017E-2,1.215621829E-1
3.277612826E0,3.078760803E-1,6.658431143E-2,1.276708394E-1
3.279626954E0,3.109304011E-1,9.957103431E-2,1.417207420E-1
3.281610565E0,3.097086847E-1,1.356120855E-1,1.582140923E-1
3.283624693E0,3.127630055E-1,1.569923609E-1,1.692096740E-1
3.285608304E0,3.121521473E-1,1.936442852E-1,1.881465018E-1
3.287622432E0,3.090978265E-1,2.284636050E-1,2.113593817E-1
3.289636560E0,3.090978265E-1,2.431243658E-1,2.241875380E-1
3.291620171E0,3.097086847E-1,2.675589919E-1,2.498438805E-1
3.293603782E0,3.090978265E-1,2.846632004E-1,2.755002379E-1
3.295617909E0,3.084869385E-1,2.901609838E-1,2.901609838E-1
3.297601521E0,3.048217595E-1,2.932153046E-1,3.158173263E-1
3.299615648E0,3.048217595E-1,2.913827300E-1,3.390302062E-1
3.301599260E0,3.029891551E-1,2.785545588E-1,3.579670191E-1
3.303613387E0,3.011565804E-1,2.706133127E-1,3.665191531E-1
3.305596998E0,2.968805134E-1,2.510656118E-1,3.787364662E-1
3.307611126E0,2.901609838E-1,2.223549485E-1,3.878994286E-1
3.309625254E0,2.895501256E-1,2.101376504E-1,3.952298164E-1
3.311608864E0,2.822197378E-1,1.777617931E-1,3.976732790E-1
3.313592476E0,2.712241709E-1,1.404990107E-1,4.013384581E-1
3.315606603E0,2.663372457E-1,1.240056455E-1,4.025602043E-1
3.317590215E0,2.528982162E-1,8.185594529E-2,3.982841372E-1
3.319604342E0,2.357939780E-1,4.398229718E-2,3.933972120E-1
3.321587953E0,2.290744632E-1,2.504547499E-2,3.885102868E-1
3.323602081E0,2.101376504E-1,-1.404990070E-2,3.793473244E-1
3.325616209E0,1.899790913E-1,-4.886921868E-2,3.683517575E-1
3.327599819E0,1.795943826E-1,-6.658431143E-2,3.604104817E-1
3.329613947E0,1.576032341E-1,-1.081231460E-1,3.445279896E-1
3.331597558E0,1.343903542E-1,-1.521054506E-1,3.268128932E-1
3.333611686E0,1.093448773E-1,-1.960877478E-1,3.042109013E-1
3.335595297E0,9.590584040E-2,-2.180788964E-1,2.950479090E-1
3.337609425E0,7.024950534E-2,-2.657263875E-1,2.742784917E-1
3.339623553E0,4.337143153E-2,-3.090978265E-1,2.510656118E-1
3.341607164E0,2.932153270E-2,-3.310889602E-1,2.394591719E-1
3.343590774E0,5.497787148E-3,-3.756821156E-1,2.156354338E-1
3.345604902E0,-2.199114859E-2,-4.086688459E-1,1.899790913E-1
3.347588513E0,-3.543018550E-2,-4.227187634E-1,1.747074574E-1
3.349633159E0,-6.047565863E-2,-4.404338300E-1,1.459967941E-1
3.351586253E0,-9.101892263E-2,-4.489859641E-1,1.142318025E-1
3.353600380E0,-1.069014147E-1,-4.483750761E-1,9.896016866E-2
3.355583991E0,-1.380555481E-1,-4.349360466E-1,6.536258012E-2
3.357598119E0,-1.753183305E-1,-4.105014503E-1,3.359758854E-2
3.359581730E0,-1.930334121E-1,-3.952298164E-1,1.893682219E-2
3.361595857E0,-2.241875380E-1,-3.524692357E-1,-9.162978269E-3
3.363579469E0,-2.602286041E-1,-2.999348342E-1,-3.665191308E-2
3.365593596E0,-2.748893499E-1,-2.736676335E-1,-4.948008433E-2
3.367607724E0,-2.987131178E-1,-2.095267773E-1,-7.024950534E-2
3.369621852E0,-3.182607889E-1,-1.392772794E-1,-8.857546002E-2
3.371605463E0,-3.323107064E-1,-7.086037099E-2,-1.001819000E-1
3.373589074E0,-3.347541690E-1,-3.359758854E-2,-1.014036313E-1
3.375603202E0,-3.341432810E-1,3.481931984E-2,-1.056796908E-1
3.377586812E0,-3.262020350E-1,1.038470939E-1,-1.026253626E-1
3.379600940E0,-3.225368559E-1,1.362229437E-1,-9.834930301E-2
3.381584551E0,-3.036000133E-1,1.960877478E-1,-8.796459436E-2
3.383598679E0,-2.779437006E-1,2.510656118E-1,-7.635815442E-2
3.385582290E0,-2.620611787E-1,2.761110961E-1,-6.780604273E-2
3.387565901E0,-2.315179259E-1,3.243694305E-1,-4.825835302E-2
3.389610546E0,-1.930334121E-1,3.573561609E-1,-2.993239649E-2
3.391594157E0,-1.722639948E-1,3.720169365E-1,-1.893682219E-2
3.393577767E0,-1.282816976E-1,3.982841372E-1,-6.108652451E-4
3.395591895E0,-8.491026610E-2,4.166100919E-1,1.527163107E-2
3.397575506E0,-5.925392732E-2,4.269948006E-1,2.443460934E-2
3.399589634E0,-1.588249579E-2,4.410447180E-1,4.276056588E-2
3.401573245E0,2.993239649E-2,4.520402849E-1,5.436700583E-2
3.403587373E0,5.070181563E-2,4.575380683E-1,5.925392732E-2
3.405570983E0,9.162978828E-2,4.691445231E-1,6.902777404E-2
3.407585112E0,1.307251602E-1,4.795292318E-1,8.002334833E-2
3.409599240E0,1.655444801E-1,4.899139404E-1,8.918632567E-2
3.411582850E0,1.826487035E-1,4.929682612E-1,9.224065393E-2
3.413566462E0,2.131919712E-1,4.966334403E-1,1.007927656E-1
3.415580589E0,2.394591719E-1,4.966334403E-1,1.056796908E-1
3.417564201E0,2.486221492E-1,4.935791194E-1,1.099557430E-1
3.419578328E0,2.687807083E-1,4.850270152E-1,1.148426682E-1
3.421561939E0,2.816088796E-1,4.728097022E-1,1.154535338E-1
3.423576067E0,2.858849466E-1,4.648684561E-1,1.166752651E-1
3.425559678E0,2.895501256E-1,4.447098970E-1,1.166752651E-1
3.427573805E0,2.871066630E-1,4.202753007E-1,1.154535338E-1
3.429587933E0,2.846632004E-1,4.062253833E-1,1.148426682E-1
3.431571544E0,2.718350291E-1,3.781255782E-1,1.160643995E-1
3.433555156E0,2.528982162E-1,3.457497358E-1,1.136209369E-1
3.435569283E0,2.419026345E-1,3.268128932E-1,1.105666086E-1
3.437552894E0,2.131919712E-1,2.938261926E-1,1.087340117E-1
3.439567021E0,1.765400618E-1,2.553416789E-1,1.026253626E-1
3.441550633E0,1.429424733E-1,2.168571651E-1,9.957103431E-2
3.443564760E0,1.191187203E-1,1.985312104E-1,9.651670605E-2
3.445548372E0,7.024950534E-2,1.631010175E-1,8.918632567E-2
3.447562499E0,1.221730467E-2,1.398881376E-1,8.307767659E-2
3.449576627E0,-1.588249579E-2,1.295034289E-1,8.307767659E-2
3.451560238E0,-7.757988572E-2,1.185078546E-1,7.880161703E-2
3.453543849E0,-1.411098689E-1,1.075122803E-1,7.391469181E-2
3.455557976E0,-1.759291887E-1,1.050688252E-1,7.269296050E-2
3.457541588E0,-2.388483137E-1,1.032362282E-1,6.963863969E-2
3.459555715E0,-3.023782969E-1,1.099557430E-1,6.658431143E-2
3.461539327E0,-3.341432810E-1,1.136209369E-1,6.536258012E-2
3.463553454E0,-3.921754956E-1,1.252273768E-1,6.230825558E-2
3.465537065E0,-4.434881806E-1,1.343903542E-1,6.536258012E-2
3.467551193E0,-4.679227769E-1,1.374446750E-1,6.108652428E-2
3.469565321E0,-5.119050741E-1,1.484402567E-1,6.475171447E-2
3.471548931E0,-5.436700583E-1,1.527163088E-1,6.597344577E-2
3.473532543E0,-5.571091175E-1,1.521054506E-1,6.414084882E-2
3.475546671E0,-5.760459304E-1,1.472185254E-1,6.780604273E-2
3.477530282E0,-5.882632136E-1,1.356120855E-1,6.475171447E-2
3.479544410E0,-5.894849896E-1,1.172861308E-1,6.658431143E-2
3.481528020E0,-5.876523852E-1,1.093448773E-1,6.658431143E-2
3.483542149E0,-5.784893632E-1,8.979719132E-2,6.475171447E-2
3.485525759E0,-5.601634383E-1,6.536258012E-2,6.658431143E-2
3.487539887E0,-5.473352671E-1,5.742133409E-2,6.841690838E-2
3.489554014E0,-5.167919993E-1,3.237585723E-2,7.147123665E-2
3.491537626E0,-4.801400900E-1,1.466076635E-2,7.269296050E-2
3.493521237E0,-4.605923891E-1,3.054326167E-3,7.574728876E-2
3.495535365E0,-4.141666293E-1,-1.221730467E-2,7.757988572E-2
3.497518975E0,-3.646865487E-1,-2.443460934E-2,7.880161703E-2
3.499563620E0,-3.365867436E-1,-3.237585723E-2,7.941248268E-2
3.501547231E0,-2.809980214E-1,-4.153883830E-2,7.757988572E-2
3.503530842E0,-2.229658216E-1,-5.436700583E-2,7.635815442E-2
3.505544969E0,-1.936442852E-1,-5.925392732E-2,7.574728876E-2
3.507528581E0,-1.356120855E-1,-7.147123665E-2,7.024950534E-2
3.509542708E0,-8.002334833E-2,-8.429940045E-2,6.719517708E-2
3.511526320E0,-2.809980139E-2,-9.651670605E-2,5.925392732E-2
3.513540447E0,-3.665191587E-3,-1.001819000E-1,5.803219974E-2
3.515524058E0,4.337143153E-2,-1.075122803E-1,5.131268129E-2
3.517538186E0,8.429940045E-2,-1.099557430E-1,4.520402849E-2
3.519521797E0,1.020144969E-1,-1.087340117E-1,4.214970022E-2
3.521535924E0,1.350012124E-1,-1.050688252E-1,3.665191308E-2
3.523519536E0,1.594358236E-1,-9.590584040E-2,3.420845419E-2
3.525533663E0,1.704314053E-1,-8.857546002E-2,3.359758854E-2
3.527517275E0,1.832595766E-1,-7.269296050E-2,3.115412779E-2
3.529531402E0,1.863138974E-1,-5.681046844E-2,2.993239649E-2
3.531515013E0,1.857030392E-1,-4.520402849E-2,3.176499158E-2
3.533529141E0,1.814269722E-1,-2.504547499E-2,3.604105115E-2
3.535512752E0,1.710422635E-1,6.108652451E-4,3.970624134E-2
3.537526880E0,1.618792862E-1,1.343903504E-2,4.398229718E-2
3.539541007E0,1.435533315E-1,4.703662544E-2,4.948008433E-2
3.541524619E0,1.233947799E-1,8.613199741E-2,5.558873713E-2
3.543508230E0,1.160643995E-1,1.044579595E-1,6.047565863E-2
3.545522358E0,9.346238524E-2,1.447750628E-1,6.536258012E-2
3.547505968E0,7.574728876E-2,1.857030392E-1,7.086037099E-2
3.549550613E0,5.681046844E-2,2.211332172E-1,7.880161703E-2
3.551503707E0,4.825835302E-2,2.388483137E-1,7.941248268E-2
3.553517835E0,3.543018550E-2,2.700024247E-1,8.613199741E-2
3.555501446E0,2.382374369E-2,2.999348342E-1,8.857546002E-2
3.557515574E0,2.015855350E-2,3.097086847E-1,9.040805697E-2
3.559499184E0,1.282817032E-2,3.274237812E-1,9.407325089E-2
3.561513313E0,9.162978269E-3,3.365867436E-1,9.773843735E-2
3.563496923E0,7.941247895E-3,3.396410644E-1,9.773843735E-2
3.565511051E0,1.221730467E-2,3.353650272E-1,1.038470939E-1
3.567494662E0,1.527163107E-2,3.231477141E-1,1.044579595E-1
3.569539307E0,1.893682219E-2,3.127630055E-1,1.038470939E-1
3.571492401E0,2.687807009E-2,2.932153046E-1,1.038470939E-1
3.573506529E0,3.604105115E-2,2.730567753E-1,1.050688252E-1
3.575490139E0,4.153883830E-2,2.620611787E-1,1.056796908E-1
3.577504268E0,5.253441259E-2,2.394591719E-1,1.026253626E-1
3.579518395E0,6.414084882E-2,2.138028294E-1,1.020144969E-1
3.581502006E0,6.902777404E-2,2.015855312E-1,1.026253626E-1
3.583485617E0,7.757988572E-2,1.740965992E-1,9.590584040E-2
3.585499745E0,8.185594529E-2,1.453859210E-1,9.224065393E-2
3.587513872E0,8.429940045E-2,1.185078546E-1,8.674286306E-2
3.589528000E0,8.307767659E-2,1.044579595E-1,8.368854225E-2
3.591481094E0,7.941248268E-2,7.330382615E-2,8.124507964E-2
3.593495223E0,7.086037099E-2,4.031710699E-2,7.635815442E-2
3.595478833E0,6.291911751E-2,2.138028294E-2,7.513642311E-2
3.597492961E0,4.948008433E-2,-1.038470957E-2,7.452555746E-2
3.599476572E0,2.748893574E-2,-4.398229718E-2,7.269296050E-2
3.601490700E0,1.893682219E-2,-5.558873713E-2,7.024950534E-2
3.603504828E0,-4.886921961E-3,-8.246681094E-2,7.147123665E-2
3.605488439E0,-3.298672289E-2,-1.050688252E-1,7.147123665E-2
3.607502567E0,-4.642575979E-2,-1.136209369E-1,7.574728876E-2
3.609516694E0,-7.757988572E-2,-1.282816976E-1,8.002334833E-2
3.611469788E0,-1.099557430E-1,-1.441642046E-1,8.429940045E-2
3.613483916E0,-1.301143020E-1,-1.521054506E-1,8.674286306E-2
3.615467527E0,-1.679879427E-1,-1.679879427E-1,9.224065393E-2
3.617481655E0,-2.083050460E-1,-1.881465018E-1,9.712757170E-2
3.619495783E0,-2.455678284E-1,-2.028072625E-1,1.020144969E-1
3.621479394E0,-2.675589919E-1,-2.156354338E-1,1.014036313E-1
3.623463004E0,-3.036000133E-1,-2.296853364E-1,1.069014147E-1
3.625477132E0,-3.396410644E-1,-2.449569702E-1,1.111774743E-1
3.627460743E0,-3.567453027E-1,-2.522873580E-1,1.111774743E-1
3.629505388E0,-3.915646076E-1,-2.657263875E-1,1.117883399E-1
3.631458482E0,-4.178318381E-1,-2.779437006E-1,1.069014147E-1
3.633472610E0,-4.294382632E-1,-2.834414840E-1,1.020144969E-1
3.635456220E0,-4.502076805E-1,-2.889392674E-1,9.590584040E-2
3.637470349E0,-4.660901725E-1,-2.944370508E-1,8.613199741E-2
3.639453959E0,-4.709770977E-1,-2.944370508E-1,7.880161703E-2
3.641468087E0,-4.795292318E-1,-2.950479090E-1,6.780604273E-2
3.643451698E0,-4.789183438E-1,-2.956587672E-1,5.497787148E-2
3.645465826E0,-4.795292318E-1,-2.944370508E-1,4.825835302E-2
3.647449437E0,-4.685336351E-1,-2.919935882E-1,3.481931984E-2
3.649494081E0,-4.587597847E-1,-2.926044464E-1,2.199114859E-2
3.651477693E0,-4.526511431E-1,-2.919935882E-1,1.343903504E-2
3.653522338E0,-4.343251884E-1,-2.803871334E-1,-3.054326167E-3
3.655505948E0,-4.135557711E-1,-2.724458873E-1,-1.710422710E-2
3.657520076E0,-3.860668242E-1,-2.651155293E-1,-3.237585723E-2
3.659534205E0,-3.707951903E-1,-2.590068579E-1,-3.848451003E-2
3.661517815E0,-3.408628106E-1,-2.492330223E-1,-5.131268129E-2
3.663501426E0,-3.121521473E-1,-2.400700450E-1,-6.475171447E-2
3.665515554E0,-2.962696552E-1,-2.382374406E-1,-6.902777404E-2
3.667499164E0,-2.681698501E-1,-2.284636050E-1,-8.307767659E-2
3.669543810E0,-2.449569702E-1,-2.211332172E-1,-9.590584040E-2
3.671496903E0,-2.284636050E-1,-2.156354338E-1,-1.014036313E-1
3.673511031E0,-2.028072625E-1,-1.936442852E-1,-1.111774743E-1
3.675494642E0,-1.795943826E-1,-1.704314053E-1,-1.227839142E-1
3.677508770E0,-1.679879427E-1,-1.551597714E-1,-1.270599663E-1
3.679492381E0,-1.472185254E-1,-1.191187203E-1,-1.392772794E-1
3.681506509E0,-1.264491081E-1,-7.208210230E-2,-1.459967941E-1
3.683490119E0,-1.185078546E-1,-5.436700583E-2,-1.508837193E-1
3.685504248E0,-1.020144969E-1,-8.552113548E-3,-1.569923609E-1
3.687487858E0,-8.613199741E-2,3.543018550E-2,-1.588249654E-1
3.689532504E0,-7.086037099E-2,7.696902007E-2,-1.569923609E-1
3.691485597E0,-6.230825558E-2,9.712757170E-2,-1.588249654E-1
3.693499725E0,-4.398229718E-2,1.362229437E-1,-1.569923609E-1
3.695483336E0,-2.626720630E-2,1.716531366E-1,-1.514945775E-1
3.697497464E0,-1.649336144E-2,1.887573600E-1,-1.490511149E-1
3.699511592E0,7.941247895E-3,2.162462920E-1,-1.429424733E-1
3.701495202E0,3.054326214E-2,2.419026345E-1,-1.368338168E-1
3.703478813E0,4.092797264E-2,2.516764700E-1,-1.325577646E-1
3.705492941E0,6.536258012E-2,2.675589919E-1,-1.288925707E-1
3.707476552E0,8.796459436E-2,2.797762752E-1,-1.240056455E-1
3.709521198E0,1.014036313E-1,2.809980214E-1,-1.215621829E-1
3.711474291E0,1.252273768E-1,2.834414840E-1,-1.203404516E-1
3.713488419E0,1.447750628E-1,2.773328125E-1,-1.197295859E-1
3.715472029E0,1.539380401E-1,2.700024247E-1,-1.191187203E-1
3.717486157E0,1.692096740E-1,2.504547536E-1,-1.197295859E-1
3.719500286E0,1.857030392E-1,2.302961946E-1,-1.227839142E-1
3.721483896E0,1.918116808E-1,2.162462920E-1,-1.258382350E-1
3.723498024E0,2.028072625E-1,1.875356287E-1,-1.313360333E-1
3.725481635E0,2.119702399E-1,1.576032341E-1,-1.398881376E-1
3.727495763E0,2.156354338E-1,1.240056455E-1,-1.453859210E-1
3.729509891E0,2.168571651E-1,1.075122803E-1,-1.502728462E-1
3.731493502E0,2.193006277E-1,7.269296050E-2,-1.563815027E-1
3.733477112E0,2.174680233E-1,3.726277873E-2,-1.667662114E-1
3.735491241E0,2.119702399E-1,1.893682219E-2,-1.704314053E-1
3.737474851E0,2.015855312E-1,-9.162978269E-3,-1.753183305E-1
3.739488979E0,1.857030392E-1,-3.970624134E-2,-1.844813079E-1
3.741472590E0,1.765400618E-1,-5.497787148E-2,-1.850921661E-1
3.743486718E0,1.551597714E-1,-7.880161703E-2,-1.924225539E-1
3.745470329E0,1.307251602E-1,-1.026253626E-1,-1.954768747E-1
3.747484457E0,1.160643995E-1,-1.154535338E-1,-2.015855312E-1
3.749498585E0,8.491026610E-2,-1.350012124E-1,-2.040289938E-1
3.751482195E0,4.948008433E-2,-1.521054506E-1,-2.089159191E-1
3.753465806E0,3.359758854E-2,-1.612684280E-1,-2.125810981E-1
3.755479934E0,-1.221730490E-3,-1.747074574E-1,-2.174680233E-1
3.757463545E0,-4.092797264E-2,-1.820378453E-1,-2.235766798E-1
3.759477673E0,-7.330382615E-2,-1.850921661E-1,-2.296853364E-1
3.761461284E0,-9.346238524E-2,-1.820378453E-1,-2.302961946E-1
3.763475412E0,-1.264491081E-1,-1.722639948E-1,-2.370157093E-1
3.765459022E0,-1.533271819E-1,-1.569923609E-1,-2.412917763E-1
3.767473150E0,-1.685988009E-1,-1.466076523E-1,-2.437352389E-1
3.769487279E0,-1.899790913E-1,-1.233947799E-1,-2.504547536E-1
3.771470889E0,-2.058615834E-1,-9.651670605E-2,-2.553416789E-1
3.773454500E0,-2.131919712E-1,-8.124507964E-2,-2.577851415E-1
3.775468628E0,-2.193006277E-1,-4.886921868E-2,-2.626720667E-1
3.777452239E0,-2.235766798E-1,-1.588249579E-2,-2.693915665E-1
3.779496884E0,-2.205223590E-1,1.832595794E-3,-2.706133127E-1
3.781449978E0,-2.131919712E-1,3.848451003E-2,-2.724458873E-1
3.783464105E0,-1.979203373E-1,7.757988572E-2,-2.693915665E-1
3.785447717E0,-1.869247705E-1,9.651670605E-2,-2.657263875E-1
3.787461844E0,-1.582140923E-1,1.264491081E-1,-2.516764700E-1
3.789475972E0,-1.227839142E-1,1.466076523E-1,-2.364048511E-1
3.791459583E0,-1.032362282E-1,1.533271819E-1,-2.247984111E-1
3.793473711E0,-5.681046844E-2,1.563815027E-1,-2.064724565E-1
3.795457322E0,-7.941247895E-3,1.508837193E-1,-1.844813079E-1
3.797471450E0,4.153883830E-2,1.392772794E-1,-1.594358236E-1
3.799455060E0,6.963863969E-2,1.288925707E-1,-1.447750628E-1
3.801469188E0,1.215621829E-1,1.172861308E-1,-1.185078546E-1
3.803452799E0,1.716531366E-1,9.468411654E-2,-8.918632567E-2
3.805466927E0,1.966986060E-1,8.857546002E-2,-7.269296050E-2
3.807450538E0,2.406809032E-1,7.269296050E-2,-4.581489414E-2
3.809464666E0,2.791654170E-1,5.558873713E-2,-1.893682219E-2
3.811448276E0,2.956587672E-1,5.131268129E-2,-7.330383174E-3
3.813462405E0,3.262020350E-1,4.459316283E-2,1.710422710E-2
3.815446015E0,3.530801237E-1,3.665191308E-2,4.031710699E-2
3.817460143E0,3.604104817E-1,3.604105115E-2,5.253441259E-2
3.819474272E0,3.744603992E-1,3.604105115E-2,7.024950534E-2
3.821457882E0,3.811798990E-1,3.359758854E-2,8.796459436E-2
3.823441493E0,3.793473244E-1,2.809980139E-2,9.101892263E-2
3.825455621E0,3.720169365E-1,2.199114859E-2,1.001819000E-1
3.827439231E0,3.597996235E-1,1.588249579E-2,1.062905490E-1
3.829453360E0,3.378084898E-1,3.665191587E-3,1.087340117E-1
3.831436970E0,3.262020350E-1,-2.443460980E-3,1.081231460E-1
3.833451098E0,3.042109013E-1,-1.832595654E-2,1.105666086E-1
3.835434709E0,2.755002379E-1,-3.909537569E-2,1.032362282E-1
3.837448837E0,2.565633953E-1,-4.337143153E-2,9.896016866E-2
3.839432449E0,2.247984111E-1,-5.558873713E-2,9.712757170E-2
3.841446576E0,1.924225539E-1,-6.902777404E-2,8.857546002E-2
3.843430187E0,1.789835095E-1,-7.696902007E-2,8.307767659E-2
3.845444315E0,1.569923609E-1,-9.346238524E-2,7.391469181E-2
3.847427926E0,1.307251602E-1,-1.056796908E-1,5.986479297E-2
3.849472571E0,1.221730486E-1,-1.136209369E-1,5.375614017E-2
3.851425665E0,1.032362282E-1,-1.270599663E-1,3.909537569E-2
3.853439792E0,8.735372871E-2,-1.447750628E-1,2.565634064E-2
3.855423404E0,8.185594529E-2,-1.533271819E-1,1.771509275E-2
3.857437531E0,7.391469181E-2,-1.698205322E-1,4.276056774E-3
3.859451659E0,6.658431143E-2,-1.881465018E-1,-9.162978269E-3
3.861435269E0,6.291911751E-2,-1.960877478E-1,-1.466076635E-2
3.863418881E0,6.414084882E-2,-2.186897546E-1,-2.809980139E-2
3.865433008E0,6.841690838E-2,-2.376265824E-1,-4.337143153E-2
3.867416620E0,7.757988572E-2,-2.571742535E-1,-5.681046844E-2
3.869461264E0,8.674286306E-2,-2.675589919E-1,-6.414084882E-2
3.871414358E0,1.050688252E-1,-2.883284092E-1,-8.002334833E-2
3.873428486E0,1.258382350E-1,-3.097086847E-1,-9.773843735E-2
3.875412097E0,1.386664063E-1,-3.182607889E-1,-1.075122803E-1
3.877426224E0,1.704314053E-1,-3.316998184E-1,-1.282816976E-1
3.879409836E0,2.028072625E-1,-3.451388776E-1,-1.496619880E-1
3.881423963E0,2.217440903E-1,-3.530801237E-1,-1.624901593E-1
3.883407575E0,2.596177161E-1,-3.616322279E-1,-1.857030392E-1
3.885421702E0,3.023782969E-1,-3.689626157E-1,-2.138028294E-1
3.887435830E0,3.213151097E-1,-3.720169365E-1,-2.290744632E-1
3.889449958E0,3.671300113E-1,-3.756821156E-1,-2.541199327E-1
3.891433569E0,4.092797041E-1,-3.726277947E-1,-2.840523422E-1
3.893417179E0,4.312708676E-1,-3.720169365E-1,-2.968805134E-1
3.895431307E0,4.776966274E-1,-3.579670191E-1,-3.219259977E-1
3.897414918E0,5.271766782E-1,-3.445279896E-1,-3.433062732E-1
3.899429046E0,5.491678715E-1,-3.353650272E-1,-3.561344445E-1
3.901412658E0,5.968153477E-1,-3.170390725E-1,-3.756821156E-1
3.903426785E0,6.450737119E-1,-3.017674387E-1,-3.897320330E-1
3.905410397E0,6.939429045E-1,-2.791654170E-1,-4.001167417E-1
3.907424524E0,7.171558142E-1,-2.687807083E-1,-4.056145251E-1
3.909438652E0,7.660250068E-1,-2.388483137E-1,-4.111123085E-1
3.911422262E0,8.155050874E-1,-2.101376504E-1,-4.098905921E-1
3.913405874E0,8.368853927E-1,-1.936442852E-1,-4.086688459E-1
3.915420001E0,8.820894361E-1,-1.563815027E-1,-3.995058835E-1
3.917403613E0,9.242390990E-1,-1.166752651E-1,-3.842342496E-1
3.919417740E0,9.468411207E-1,-9.468411654E-2,-3.775147200E-1
3.921401351E0,9.871582389E-1,-5.803219974E-2,-3.543018401E-1
3.923415479E0,1.026864529E0,-2.199114859E-2,-3.268128932E-1
3.925399090E0,1.044579625E0,-1.160643995E-2,-3.103195429E-1
3.927413217E0,1.079398870E0,6.108652335E-3,-2.773328125E-1
3.929427346E0,1.111163855E0,1.099557430E-2,-2.419026345E-1
3.931410956E0,1.122159481E0,6.108652335E-3,-2.247984111E-1
3.933394568E0,1.149037480E0,-6.108652335E-3,-1.942551434E-1
3.935408695E0,1.168585181E0,-3.054326214E-2,-1.692096740E-1
3.937392306E0,1.174693823E0,-4.398229718E-2,-1.569923609E-1
3.939406434E0,1.185689449E0,-7.208210230E-2,-1.331686229E-1
3.941390045E0,1.188132882E0,-1.032362282E-1,-1.185078546E-1
3.943404172E0,1.178359032E0,-1.386664063E-1,-1.075122803E-1
3.945387784E0,1.174693823E0,-1.527163088E-1,-1.001819000E-1
3.947401911E0,1.154535294E0,-1.808161139E-1,-9.773843735E-2
3.949416039E0,1.128268123E0,-2.089159191E-1,-9.590584040E-2
3.951399650E0,1.111774802E0,-2.180788964E-1,-9.773843735E-2
3.953383261E0,1.075122833E0,-2.370157093E-1,-1.032362282E-1
3.955397388E0,1.030529618E0,-2.541199327E-1,-1.136209369E-1
3.957381000E0,1.004262447E0,-2.583959997E-1,-1.172861308E-1
3.959395127E0,9.517280459E-1,-2.687807083E-1,-1.264491081E-1
3.961378739E0,8.912523985E-1,-2.718350291E-1,-1.374446750E-1
3.963392867E0,8.600982428E-1,-2.724458873E-1,-1.429424733E-1
3.965376478E0,7.916813493E-1,-2.755002379E-1,-1.539380401E-1
3.967390606E0,7.153232098E-1,-2.791654170E-1,-1.661553532E-1
3.969404733E0,6.774495840E-1,-2.797762752E-1,-1.728748679E-1
3.971388344E0,6.023131609E-1,-2.791654170E-1,-1.795943826E-1
3.973371955E0,5.204572082E-1,-2.809980214E-1,-1.893682331E-1
3.975386083E0,4.422664344E-1,-2.834414840E-1,-1.966986060E-1
3.977369694E0,4.031710625E-1,-2.852740586E-1,-1.997529417E-1
3.979414338E0,3.274237812E-1,-2.871066630E-1,-2.015855312E-1
3.981367432E0,2.553416789E-1,-2.877175212E-1,-2.052507252E-1
